// Start Time: 0
// Sample rate: 50.0Hz
// Scenario: 4.9
// Firmware Version: 2.5.1
Counter	Acc_X	Acc_Y	Acc_Z	Gyr_X	Gyr_Y	Gyr_Z	Mag_X	Mag_Y	Mag_Z	Quat_w	Quat_x	Quat_y	Quat_z
 1024	4.058783	8.910753	-1.340357	-0.012588	-0.032902	0.219914	-0.484465	-1.224495	0.125566	0.652163	0.640887	-0.396328	-0.082896	
 1025	4.072996	8.778504	-1.305233	0.001319	0.001103	0.203526	-0.490340	-1.222814	0.126284	0.652326	0.640088	-0.397626	-0.081557	
 1026	4.129765	8.680643	-1.289252	0.012448	0.014890	0.163934	-0.496270	-1.221607	0.125787	0.652439	0.639528	-0.398589	-0.080343	
 1027	4.173938	8.618745	-1.282594	0.047834	0.032515	0.155760	-0.501169	-1.220644	0.125353	0.652387	0.639244	-0.399411	-0.078928	
 1028	4.174451	8.578496	-1.306717	0.059904	0.048171	0.142952	-0.506195	-1.219564	0.127722	0.652309	0.639100	-0.400058	-0.077448	
 1029	4.236257	8.610620	-1.321175	0.067379	0.037195	0.138257	-0.508939	-1.219192	0.129424	0.652133	0.639014	-0.400751	-0.076039	
 1030	4.298275	8.626164	-1.345284	0.085055	0.050128	0.136483	-0.513221	-1.216860	0.131324	0.651894	0.639058	-0.401360	-0.074488	
 1031	4.351189	8.617195	-1.345567	0.075708	0.054638	0.122641	-0.517682	-1.214475	0.132143	0.651720	0.639099	-0.401844	-0.073035	
 1032	4.303422	8.597852	-1.364583	0.068212	0.058254	0.094078	-0.521652	-1.212720	0.132449	0.651587	0.639206	-0.402117	-0.071777	
 1033	4.326113	8.672909	-1.392993	0.085063	0.032684	0.115150	-0.524220	-1.211596	0.135243	0.651257	0.639320	-0.402701	-0.070476	
 1034	4.316824	8.660368	-1.369104	0.070196	0.018846	0.128892	-0.527918	-1.211331	0.138488	0.650974	0.639272	-0.403449	-0.069231	
 1035	4.441400	8.662356	-1.398345	0.060906	-0.007848	0.107455	-0.531097	-1.207575	0.139409	0.650627	0.639228	-0.404230	-0.068335	
 1036	4.507695	8.711480	-1.422301	0.054355	-0.003318	0.101912	-0.534659	-1.208641	0.139967	0.650336	0.639163	-0.404945	-0.067479	
 1037	4.499269	8.630321	-1.441811	0.047829	-0.013464	0.076020	-0.537605	-1.208993	0.140040	0.650027	0.639156	-0.405551	-0.066877	
 1038	4.502375	8.582595	-1.449245	0.053391	-0.007023	0.056693	-0.538233	-1.206898	0.143241	0.649695	0.639266	-0.405998	-0.066340	
 1039	4.519256	8.568925	-1.475695	0.007670	-0.003651	0.032672	-0.538853	-1.206271	0.143746	0.649653	0.639180	-0.406237	-0.066119	
 1040	4.476554	8.539601	-1.470873	0.008545	0.010102	0.001410	-0.540490	-1.205950	0.144448	0.649640	0.639233	-0.406191	-0.066016	
 1041	4.421860	8.510139	-1.465998	0.002983	-0.010110	-0.018065	-0.540640	-1.207266	0.143884	0.649568	0.639318	-0.406144	-0.066186	
 1042	4.414492	8.519726	-1.470698	-0.017559	-0.007495	-0.042975	-0.539230	-1.207494	0.143837	0.649621	0.639368	-0.405915	-0.066592	
 1043	4.394386	8.581579	-1.460724	-0.030604	-0.013992	-0.049477	-0.539589	-1.208067	0.144341	0.649727	0.639360	-0.405670	-0.067127	
 1044	4.383800	8.648333	-1.450768	-0.031530	-0.024090	-0.066139	-0.538585	-1.207747	0.143875	0.649784	0.639395	-0.405401	-0.067857	
 1045	4.373781	8.681379	-1.431423	-0.043668	-0.014069	-0.062399	-0.538130	-1.208872	0.142550	0.649964	0.639353	-0.405065	-0.068529	
 1046	4.297586	8.664844	-1.364212	-0.058563	-0.016893	-0.063321	-0.535296	-1.209877	0.142717	0.650226	0.639215	-0.404734	-0.069289	
 1047	4.285492	8.674100	-1.354545	-0.039896	-0.015846	-0.040229	-0.533280	-1.210182	0.141906	0.650390	0.639106	-0.404553	-0.069813	
 1048	4.264126	8.663998	-1.340154	-0.031500	-0.013035	-0.032814	-0.533721	-1.210665	0.140666	0.650514	0.639014	-0.404423	-0.070253	
 1049	4.230768	8.653758	-1.325710	-0.030506	-0.034112	-0.023700	-0.533781	-1.211400	0.139314	0.650554	0.638886	-0.404473	-0.070748	
 1050	4.244844	8.664143	-1.359198	-0.017436	-0.038613	-0.008038	-0.534116	-1.211733	0.140357	0.650501	0.638758	-0.404691	-0.071149	
 1051	4.218684	8.649472	-1.359156	-0.034206	-0.035947	0.011341	-0.535179	-1.211187	0.139628	0.650582	0.638463	-0.404974	-0.071442	
 1052	4.382719	8.589186	-1.364982	-0.015495	-0.057876	0.025002	-0.534617	-1.212295	0.140584	0.650463	0.638208	-0.405516	-0.071729	
 1053	4.447882	8.552354	-1.403723	0.001231	-0.037614	0.022347	-0.534747	-1.211896	0.140582	0.650319	0.638097	-0.405906	-0.071818	
 1054	4.365872	8.571211	-1.436738	0.030987	-0.005314	0.025372	-0.536156	-1.211937	0.140625	0.650113	0.638162	-0.406170	-0.071607	
 1055	4.316208	8.662750	-1.493435	0.017962	-0.017294	0.044674	-0.537915	-1.211358	0.141457	0.649961	0.638083	-0.406583	-0.071353	
 1056	4.431251	8.662142	-1.517865	0.010476	-0.011866	0.036349	-0.538416	-1.211786	0.141686	0.649867	0.637966	-0.406945	-0.071196	
 1057	4.509529	8.573833	-1.487583	-0.006350	0.010024	0.033664	-0.540454	-1.210522	0.142109	0.649972	0.637793	-0.407093	-0.070938	
 1058	4.522739	8.506237	-1.452121	0.010390	0.033051	0.032894	-0.540912	-1.210596	0.143282	0.650062	0.637738	-0.407114	-0.070489	
 1059	4.501791	8.472006	-1.428291	0.017791	0.048673	0.000720	-0.540678	-1.211099	0.142754	0.650147	0.637882	-0.406818	-0.070099	
 1060	4.430107	8.458882	-1.411299	0.031756	0.064372	0.011928	-0.542236	-1.210854	0.142390	0.650210	0.638054	-0.406546	-0.069531	
 1061	4.401225	8.467945	-1.401558	0.043886	0.050679	-0.015801	-0.543236	-1.212247	0.142841	0.650125	0.638436	-0.406151	-0.069129	
 1062	4.381507	8.499036	-1.410875	0.028975	0.044170	-0.020462	-0.541443	-1.211392	0.142835	0.650101	0.638708	-0.405799	-0.068909	
 1063	4.405848	8.479928	-1.399126	0.019645	0.045021	-0.028778	-0.540915	-1.211796	0.143130	0.650138	0.638980	-0.405341	-0.068726	
 1064	4.469788	8.533355	-1.399136	0.022438	0.042271	-0.036198	-0.540254	-1.213270	0.143418	0.650139	0.639287	-0.404874	-0.068624	
 1065	4.519130	8.596423	-1.410988	0.021540	0.030342	-0.021532	-0.538842	-1.212163	0.143525	0.650110	0.639531	-0.404559	-0.068478	
 1066	4.505688	8.691929	-1.403262	0.025257	0.029447	-0.033521	-0.538464	-1.213481	0.143263	0.650042	0.639834	-0.404196	-0.068431	
 1067	4.580635	8.803330	-1.422153	-0.000847	0.021018	-0.040090	-0.538271	-1.214084	0.144604	0.650106	0.640001	-0.403809	-0.068555	
 1068	4.531159	8.745280	-1.422231	-0.010169	0.017294	-0.052093	-0.535602	-1.213448	0.144116	0.650208	0.640175	-0.403327	-0.068795	
 1069	4.475711	8.628395	-1.355630	-0.027841	0.010781	-0.044746	-0.535896	-1.215819	0.143125	0.650400	0.640177	-0.402958	-0.069123	
 1070	4.434101	8.540822	-1.310461	-0.025055	0.030995	-0.022464	-0.534938	-1.217053	0.141563	0.650670	0.640128	-0.402592	-0.069168	
 1071	4.406080	8.501536	-1.277061	-0.030571	0.006211	-0.010613	-0.533217	-1.217322	0.139931	0.650885	0.639970	-0.402471	-0.069313	
 1072	4.429837	8.522951	-1.255535	-0.011906	0.017351	0.032819	-0.533298	-1.217634	0.138182	0.651055	0.639776	-0.402554	-0.069029	
 1073	4.525744	8.533178	-1.231998	-0.034242	0.002525	0.037279	-0.534165	-1.218360	0.138784	0.651312	0.639397	-0.402760	-0.068899	
 1074	4.559774	8.511556	-1.208348	-0.041665	-0.003939	0.052901	-0.534848	-1.217798	0.137946	0.651607	0.638955	-0.403024	-0.068674	
 1075	4.628173	8.442247	-1.175533	-0.026728	-0.006614	0.055643	-0.535591	-1.218239	0.135752	0.651793	0.638543	-0.403413	-0.068450	
 1076	4.753128	8.427015	-1.180952	-0.019233	-0.017594	0.069372	-0.537210	-1.220330	0.133878	0.651895	0.638137	-0.403940	-0.068169	
 1077	4.844575	8.411121	-1.171877	-0.015498	-0.026774	0.049913	-0.538549	-1.217899	0.132892	0.651925	0.637805	-0.404433	-0.068062	
 1078	4.918324	8.294710	-1.177589	-0.028529	-0.027780	0.067391	-0.538014	-1.220448	0.133156	0.652047	0.637367	-0.404962	-0.067850	
 1079	5.063410	8.215276	-1.195385	-0.037891	-0.006768	0.081284	-0.540382	-1.219912	0.131941	0.652323	0.636772	-0.405513	-0.067497	
 1080	5.066512	8.023208	-1.170084	-0.035092	-0.000338	0.081328	-0.540530	-1.220818	0.128708	0.652603	0.636230	-0.405981	-0.067081	
 1081	5.045353	7.836431	-1.185299	-0.027582	-0.016801	0.087706	-0.541196	-1.221744	0.128116	0.652778	0.635664	-0.406649	-0.066701	
 1082	5.198697	7.825301	-1.262562	-0.016410	-0.025035	0.068234	-0.542180	-1.223143	0.126160	0.652830	0.635291	-0.407190	-0.066435	
 1083	5.276824	7.717320	-1.330423	-0.034236	0.002326	0.027758	-0.541843	-1.223481	0.125106	0.653085	0.634934	-0.407354	-0.066343	
 1084	5.482101	7.746027	-1.455538	-0.032504	0.035293	0.001119	-0.539164	-1.225251	0.121908	0.653444	0.634783	-0.407041	-0.066174	
 1085	5.680611	7.754991	-1.554421	-0.041960	0.086560	0.015166	-0.536650	-1.226194	0.120718	0.654082	0.634478	-0.406578	-0.065649	
 1086	5.849958	7.920717	-1.726495	-0.014079	0.104119	0.014302	-0.535445	-1.228211	0.118892	0.654618	0.634485	-0.405837	-0.064806	
 1087	5.583874	7.617126	-1.667089	-0.012250	0.119749	-0.021462	-0.529876	-1.230379	0.117077	0.655175	0.634539	-0.404953	-0.064175	
 1088	6.060373	8.085767	-1.838974	0.028720	0.103384	-0.046626	-0.526119	-1.231511	0.115028	0.655399	0.635090	-0.403828	-0.063532	
 1089	6.324015	8.351234	-2.034869	0.056647	0.094326	-0.051379	-0.520214	-1.232690	0.114988	0.655392	0.635694	-0.402977	-0.062964	
 1090	6.038633	7.903493	-1.964163	0.056738	0.078787	-0.039354	-0.512229	-1.232507	0.115638	0.655346	0.636412	-0.402026	-0.062264	
 1091	5.890058	7.572054	-2.005859	0.056790	0.068727	-0.019978	-0.503745	-1.231494	0.116064	0.655249	0.636870	-0.401555	-0.061634	
 1092	5.782710	7.367932	-2.042300	0.038185	0.061303	0.003064	-0.495285	-1.230721	0.115950	0.655279	0.637306	-0.400941	-0.060805	
 1093	5.719113	7.146309	-2.014463	0.015867	0.059362	0.042722	-0.488375	-1.227050	0.118589	0.655438	0.637234	-0.400921	-0.059969	
 1094	5.568663	6.975179	-1.923804	-0.033631	0.097596	0.015288	-0.480293	-1.222553	0.118907	0.656079	0.637191	-0.400072	-0.059084	
 1095	5.612061	6.956795	-1.938441	-0.101655	0.069644	-0.008955	-0.470589	-1.217961	0.118261	0.656990	0.636557	-0.399602	-0.058971	
 1096	5.700786	6.980390	-1.866977	-0.153914	0.080296	-0.046803	-0.458990	-1.211024	0.119912	0.658288	0.635948	-0.398415	-0.059099	
 1097	5.776587	7.052470	-1.833466	-0.250967	0.088825	-0.121608	-0.446495	-1.205519	0.118656	0.660149	0.634783	-0.397030	-0.060178	
 1098	5.790530	7.117392	-1.713630	-0.293949	0.111458	-0.190707	-0.433975	-1.198961	0.115277	0.662351	0.633743	-0.394774	-0.061756	
 1099	5.723401	7.278879	-1.681412	-0.346271	0.128546	-0.265355	-0.417939	-1.189561	0.113237	0.664864	0.632518	-0.392167	-0.063887	
 1100	5.683222	7.422717	-1.587231	-0.346333	0.130353	-0.343734	-0.400581	-1.183376	0.111768	0.667342	0.631661	-0.388864	-0.066663	
 1101	5.705819	7.529648	-1.529391	-0.372508	0.139334	-0.403676	-0.383387	-1.172734	0.107145	0.669936	0.630771	-0.385295	-0.069725	
 1102	5.616177	7.581625	-1.545461	-0.380101	0.173213	-0.457871	-0.365541	-1.161964	0.105509	0.672670	0.630101	-0.380968	-0.073152	
 1103	5.423498	7.647800	-1.489261	-0.368922	0.179742	-0.464198	-0.347332	-1.151827	0.103351	0.675302	0.629448	-0.376745	-0.076325	
 1104	5.332811	7.773596	-1.483425	-0.355857	0.172508	-0.465114	-0.330649	-1.139208	0.101668	0.677825	0.628919	-0.372372	-0.079711	
 1105	5.205266	7.809801	-1.449191	-0.348343	0.161591	-0.440213	-0.315406	-1.122854	0.099680	0.680225	0.628255	-0.368436	-0.082733	
 1106	5.236949	8.099178	-1.407190	-0.323984	0.133348	-0.376723	-0.302490	-1.108158	0.099925	0.682431	0.627543	-0.364888	-0.085642	
 1107	5.307380	8.513908	-1.383846	-0.327539	0.095791	-0.259836	-0.293189	-1.089794	0.099993	0.684571	0.626271	-0.362556	-0.087746	
 1108	5.278932	8.810005	-1.353498	-0.327356	0.057353	-0.146599	-0.284802	-1.073173	0.099575	0.686696	0.624610	-0.360955	-0.089568	
 1109	5.120788	9.159329	-1.178820	-0.308420	-0.010281	-0.026078	-0.279787	-1.054197	0.098574	0.688515	0.622513	-0.360844	-0.090642	
 1110	5.022130	9.711809	-0.945971	-0.289485	-0.084348	0.075929	-0.277961	-1.033992	0.098055	0.690078	0.620168	-0.361633	-0.091679	
 1111	5.854631	10.974357	-0.837966	-0.205202	-0.222389	0.190149	-0.280190	-1.012217	0.098770	0.690665	0.617795	-0.364433	-0.092190	
 1112	5.256312	10.482113	-0.632181	-0.305481	-0.325545	0.297605	-0.283357	-0.992561	0.098458	0.691631	0.614293	-0.368233	-0.093248	
 1113	6.418339	11.988511	-0.553087	-0.145882	-0.417378	0.328103	-0.283468	-0.973341	0.100341	0.691228	0.611612	-0.373286	-0.093766	
 1114	6.609184	12.688871	0.009228	-0.202865	-0.428858	0.088067	-0.282078	-0.953492	0.098719	0.690942	0.609473	-0.376595	-0.096527	
 1115	4.903237	12.585626	0.626089	-0.251620	-0.413433	-0.353025	-0.271222	-0.938442	0.098837	0.690515	0.608583	-0.377344	-0.102115	
 1116	2.607007	11.186396	1.523470	-0.362477	-0.460617	-0.704814	-0.258058	-0.925857	0.095991	0.690234	0.608245	-0.375851	-0.111138	
 1117	2.370470	11.085305	1.906610	-0.342783	-0.431948	-0.608580	-0.242956	-0.914961	0.090568	0.689968	0.607592	-0.374998	-0.118964	
 1118	2.083444	10.654871	2.197410	-0.323986	-0.370202	-0.387599	-0.224874	-0.904150	0.085737	0.690074	0.606359	-0.374806	-0.125089	
 1119	1.929727	10.193860	2.164634	-0.307005	-0.391099	-0.244658	-0.216759	-0.894323	0.081723	0.690154	0.604574	-0.375855	-0.130044	
 1120	2.283873	9.889907	1.989315	-0.243376	-0.473313	-0.176039	-0.209973	-0.883823	0.079506	0.689607	0.602932	-0.377737	-0.135022	
 1121	2.574059	9.645453	1.671111	-0.239590	-0.528411	-0.188478	-0.206377	-0.873018	0.074948	0.688812	0.601170	-0.380110	-0.140179	
 1122	2.659756	9.143853	1.400321	-0.194801	-0.567640	-0.213601	-0.199427	-0.863890	0.073390	0.687512	0.599832	-0.382458	-0.145788	
 1123	2.777711	8.719771	1.103482	-0.157558	-0.577576	-0.247798	-0.190502	-0.857037	0.072727	0.685914	0.598735	-0.384884	-0.151336	
 1124	2.793241	7.931022	0.776526	-0.066165	-0.591732	-0.230258	-0.185001	-0.850188	0.072915	0.683671	0.598260	-0.387459	-0.156697	
 1125	2.711309	7.306872	0.675634	-0.065997	-0.641245	-0.187157	-0.178809	-0.842575	0.074228	0.681326	0.597401	-0.390785	-0.161847	
 1126	2.785714	6.766409	0.426215	-0.006393	-0.603296	-0.136160	-0.177052	-0.835145	0.076726	0.678774	0.596901	-0.394068	-0.166387	
 1127	2.932965	6.500784	0.252017	0.019649	-0.554529	-0.053805	-0.173182	-0.828794	0.080413	0.676433	0.596191	-0.397714	-0.169757	
 1128	3.054538	6.356225	0.119209	0.056884	-0.515784	0.004529	-0.171683	-0.821102	0.082897	0.674043	0.595674	-0.401325	-0.172559	
 1129	3.303986	6.327549	0.015123	0.064333	-0.506602	0.044152	-0.173814	-0.813877	0.087282	0.671762	0.594915	-0.405294	-0.174778	
 1130	3.624220	6.394247	-0.024224	0.056801	-0.463579	0.093156	-0.173612	-0.807952	0.092065	0.669703	0.594102	-0.409061	-0.176664	
 1131	3.840794	6.353452	-0.015836	0.028743	-0.411496	0.129322	-0.177369	-0.800674	0.094607	0.668148	0.592884	-0.412835	-0.177859	
 1132	4.068577	6.234492	0.078185	0.079079	-0.369011	0.196880	-0.180096	-0.792716	0.100035	0.666502	0.591937	-0.416609	-0.178389	
 1133	4.269412	6.279780	0.084696	0.092024	-0.308416	0.236838	-0.182852	-0.785394	0.104782	0.665180	0.590837	-0.420450	-0.177956	
 1134	4.254204	6.366058	0.197598	0.119844	-0.237618	0.228996	-0.188797	-0.776842	0.110012	0.663879	0.590244	-0.423599	-0.177316	
 1135	4.588197	6.807364	0.241424	0.148590	-0.175122	0.236638	-0.193652	-0.770070	0.116489	0.662785	0.589715	-0.426660	-0.175821	
 1136	4.855463	7.225978	0.304561	0.171741	-0.113571	0.233226	-0.200165	-0.763621	0.123122	0.661698	0.589654	-0.429093	-0.174196	
 1137	5.348668	7.911518	0.322629	0.212568	-0.041854	0.243634	-0.203845	-0.756038	0.130088	0.660820	0.589706	-0.431432	-0.171556	
 1138	5.884228	8.616472	0.228219	0.240348	0.028873	0.287207	-0.207585	-0.747187	0.135865	0.660018	0.590097	-0.433349	-0.168433	
 1139	6.044224	8.970517	0.222155	0.262733	0.048297	0.371218	-0.212678	-0.740040	0.142733	0.659458	0.590025	-0.435934	-0.164156	
 1140	6.705621	9.882518	0.023034	0.307361	0.099878	0.477364	-0.220091	-0.730140	0.149628	0.658856	0.590122	-0.438595	-0.159058	
 1141	6.612789	10.537477	-0.212305	0.268106	0.107018	0.487530	-0.226490	-0.723137	0.156009	0.658696	0.589599	-0.441477	-0.153595	
 1142	6.070523	10.272315	0.424830	0.261458	0.171225	0.338714	-0.233736	-0.716472	0.160726	0.658428	0.590078	-0.442749	-0.149180	
 1143	9.863052	14.858563	-0.276292	0.627379	0.203995	0.369040	-0.237764	-0.708806	0.168473	0.656386	0.592504	-0.444806	-0.142284	
 1144	6.872496	13.093840	-1.338542	-0.037359	0.471868	0.196771	-0.241509	-0.701408	0.171285	0.658982	0.592041	-0.442821	-0.138341	
 1145	3.821219	10.256605	-0.471502	0.082418	0.396038	0.051100	-0.239954	-0.698845	0.171825	0.660545	0.592535	-0.440914	-0.134822	
 1146	2.364344	9.944132	-1.157687	0.438207	0.458006	-0.081309	-0.238121	-0.696452	0.178265	0.659850	0.596387	-0.437995	-0.130689	
 1147	2.889876	10.596638	-1.520145	0.703460	0.227496	-0.033732	-0.235625	-0.690459	0.185470	0.656809	0.601123	-0.437455	-0.126042	
 1148	2.927903	11.447192	-2.881353	0.673673	0.032809	-0.093106	-0.236626	-0.686405	0.194562	0.652776	0.605975	-0.437526	-0.123485	
 1149	3.157389	10.794340	-3.172694	0.573361	-0.125609	-0.039828	-0.234408	-0.682811	0.203854	0.648866	0.609448	-0.439042	-0.121604	
 1150	3.526160	10.647822	-3.804002	0.388707	-0.157092	-0.015481	-0.230366	-0.679322	0.210988	0.645789	0.611834	-0.440444	-0.120932	
 1151	3.801512	10.192725	-3.888879	0.314050	-0.105312	0.040905	-0.224999	-0.677036	0.216182	0.643565	0.613328	-0.441995	-0.119553	
 1152	4.080184	9.887452	-3.791263	0.034018	0.039663	0.025670	-0.223000	-0.676798	0.217785	0.643569	0.613472	-0.441947	-0.118972	
 1153	3.812505	9.064061	-3.232360	-0.171429	0.232876	-0.025849	-0.223290	-0.676501	0.217102	0.645682	0.612574	-0.440341	-0.118098	
 1154	3.486243	8.045272	-2.511595	-0.346896	0.383173	-0.081247	-0.222464	-0.677723	0.212723	0.649396	0.611128	-0.436963	-0.117778	
 1155	3.096597	7.122016	-1.689621	-0.485731	0.433753	-0.115955	-0.218892	-0.680911	0.203809	0.654151	0.608813	-0.433121	-0.117641	
 1156	2.955424	6.494078	-1.130276	-0.520064	0.421635	-0.141810	-0.217675	-0.683711	0.193947	0.658968	0.606498	-0.428887	-0.118228	
 1157	2.935179	6.082572	-0.668398	-0.540545	0.445339	-0.185017	-0.215758	-0.686557	0.185333	0.663960	0.604078	-0.424447	-0.118709	
 1158	2.884833	6.000572	-0.419903	-0.540508	0.427890	-0.256119	-0.210003	-0.688219	0.176582	0.668726	0.602059	-0.419415	-0.120091	
 1159	2.849534	5.844175	-0.279466	-0.499393	0.388682	-0.301485	-0.204203	-0.690331	0.168763	0.673032	0.600268	-0.414657	-0.121514	
 1160	2.747630	5.824723	-0.075852	-0.365169	0.387635	-0.399994	-0.199763	-0.692680	0.164733	0.676337	0.599918	-0.409205	-0.123365	
 1161	3.094688	5.971357	-0.270340	-0.242243	0.415804	-0.430279	-0.193850	-0.694917	0.159328	0.679003	0.600368	-0.403771	-0.124427	
 1162	2.998571	5.889611	-0.062291	-0.193529	0.338163	-0.433408	-0.184171	-0.698448	0.157489	0.680986	0.601205	-0.398636	-0.126092	
 1163	3.024487	6.818952	-0.669785	-0.154809	0.432853	-0.468819	-0.176300	-0.698007	0.155727	0.683097	0.602380	-0.392936	-0.126955	
 1164	2.852966	6.756180	-0.621517	-0.152726	0.339338	-0.486828	-0.168271	-0.699199	0.154486	0.684726	0.603660	-0.387496	-0.128807	
 1165	3.401600	8.370809	-1.055643	-0.214665	0.428774	-0.487549	-0.160098	-0.698934	0.153678	0.687089	0.604460	-0.381608	-0.130048	
 1166	4.008347	8.337200	-0.690268	0.154669	0.477771	-0.323812	-0.153519	-0.699999	0.154352	0.687551	0.607360	-0.376574	-0.128764	
 1167	3.914554	9.144426	-0.623517	-0.336368	0.363005	-0.223548	-0.147867	-0.700655	0.154438	0.690706	0.606194	-0.372571	-0.129016	
 1168	4.960884	10.624702	-0.749691	-0.053712	0.321551	-0.035758	-0.143731	-0.699230	0.152451	0.692187	0.606358	-0.370074	-0.127484	
 1169	4.812668	10.634605	-0.605502	-0.035089	0.380450	0.050463	-0.140833	-0.698568	0.154118	0.693901	0.606257	-0.368006	-0.124598	
 1170	4.473395	10.891841	-0.483098	-0.050702	0.286891	0.053716	-0.139272	-0.697882	0.154630	0.695335	0.606053	-0.366289	-0.122642	
 1171	4.861469	11.975870	-0.075119	0.090381	0.194203	0.110348	-0.139989	-0.697426	0.155794	0.695662	0.606365	-0.366025	-0.120006	
 1172	7.804097	15.057028	-2.855830	0.372642	0.395317	0.233214	-0.139623	-0.695824	0.163734	0.695123	0.608558	-0.365143	-0.114590	
 1173	4.495822	11.413572	0.923170	0.211265	0.038185	0.094059	-0.137032	-0.698175	0.161324	0.694095	0.609584	-0.366023	-0.112551	
 1174	3.178659	12.260357	-0.924609	-0.105529	0.062041	-0.147358	-0.135285	-0.698897	0.165706	0.694804	0.609449	-0.364588	-0.113551	
 1175	2.375833	11.851520	-0.569221	-0.181547	0.177100	-0.520921	-0.126872	-0.701414	0.164336	0.695943	0.610180	-0.360264	-0.116424	
 1176	2.512022	11.836800	-0.220779	-0.490590	0.368700	-0.581049	-0.117944	-0.705766	0.157354	0.699569	0.609256	-0.353584	-0.119949	
 1177	2.362179	11.927281	-0.157470	-0.764987	0.471601	-0.633259	-0.107284	-0.710134	0.149012	0.705075	0.606608	-0.345739	-0.123934	
 1178	1.659792	11.148135	0.955987	-0.704926	0.460243	-0.565592	-0.097366	-0.715077	0.138473	0.710212	0.604124	-0.338187	-0.127528	
 1179	1.693137	10.707037	1.493994	-0.609607	0.465459	-0.472280	-0.087762	-0.721311	0.129366	0.714833	0.601905	-0.331426	-0.129922	
 1180	1.493171	10.033683	1.639677	-0.533057	0.458612	-0.465682	-0.079587	-0.723699	0.122900	0.718938	0.600204	-0.324656	-0.132219	
 1181	1.406449	9.247490	1.994700	-0.308038	0.383775	-0.502769	-0.073792	-0.728853	0.115022	0.721371	0.600054	-0.318594	-0.134376	
 1182	1.191930	8.655939	1.863482	-0.155914	0.318672	-0.515808	-0.066885	-0.733042	0.111525	0.722621	0.600980	-0.313000	-0.136645	
 1183	1.043929	8.333842	1.460750	-0.032707	0.241476	-0.491171	-0.055495	-0.734718	0.113569	0.722932	0.602538	-0.308334	-0.138737	
 1184	1.098969	7.793845	1.175552	0.085000	0.183526	-0.352120	-0.048978	-0.737330	0.115554	0.722498	0.604480	-0.305016	-0.139879	
 1185	1.225502	7.269963	0.842293	0.178344	0.193314	-0.159222	-0.042670	-0.739600	0.118600	0.721827	0.606462	-0.302955	-0.139238	
 1186	1.329685	6.974177	0.591612	-0.048096	0.175468	-0.017571	-0.041679	-0.741560	0.123182	0.722632	0.606404	-0.301530	-0.138413	
 1187	1.502421	6.238431	0.716179	-0.022706	0.190354	0.185425	-0.041659	-0.741849	0.123580	0.723641	0.605886	-0.301283	-0.135920	
 1188	1.735606	6.015896	0.594427	0.005243	0.258429	0.354572	-0.042960	-0.744279	0.125734	0.724869	0.605193	-0.301581	-0.131738	
 1189	1.948727	5.762464	0.697386	0.033408	0.238442	0.478932	-0.047500	-0.743688	0.127457	0.726052	0.604237	-0.302829	-0.126652	
 1190	2.226775	5.755075	0.624368	-0.038275	0.215982	0.565312	-0.052932	-0.744608	0.131909	0.727647	0.602501	-0.304637	-0.121322	
 1191	2.745877	6.007469	0.637699	-0.058009	0.292833	0.611654	-0.061087	-0.743821	0.133135	0.729662	0.600488	-0.306166	-0.115196	
 1192	3.170558	6.503342	0.762703	-0.020843	0.348026	0.616458	-0.070739	-0.742054	0.135350	0.731550	0.598825	-0.307312	-0.108634	
 1193	3.699739	7.387671	0.927503	0.003171	0.421451	0.573343	-0.076203	-0.740802	0.139298	0.733485	0.597443	-0.307733	-0.101793	
 1194	4.192517	8.124378	1.024749	-0.062375	0.519103	0.545046	-0.084855	-0.737910	0.141058	0.735995	0.595811	-0.307124	-0.094848	
 1195	4.742150	8.656795	1.316773	-0.094221	0.622509	0.618274	-0.090612	-0.737293	0.144175	0.739089	0.593675	-0.306229	-0.086730	
 1196	5.351285	9.570428	1.749189	-0.013926	0.619292	0.689121	-0.100108	-0.736220	0.146925	0.741639	0.591964	-0.305732	-0.077964	
 1197	5.995687	10.537045	1.689119	0.107019	0.707984	0.707029	-0.111098	-0.732969	0.150814	0.743760	0.590972	-0.304871	-0.068014	
 1198	5.407932	9.860792	2.003906	0.199930	0.826871	0.524536	-0.117770	-0.729819	0.153776	0.745424	0.591383	-0.301957	-0.058578	
 1199	7.229486	13.578268	2.211011	0.412200	0.810393	0.338470	-0.122754	-0.727335	0.162587	0.745689	0.593703	-0.298303	-0.049801	
 1200	7.601051	13.936887	-0.773103	0.189418	1.238939	0.205855	-0.131485	-0.725067	0.173561	0.748306	0.595060	-0.290372	-0.040305	
 1201	5.697178	11.744525	1.371461	0.758446	0.946485	0.098618	-0.134317	-0.722482	0.179035	0.746584	0.600633	-0.284360	-0.031489	
 1202	3.268250	10.350006	0.574046	0.447410	0.736800	0.056503	-0.136132	-0.722287	0.189620	0.745985	0.604013	-0.279345	-0.025331	
 1203	3.920119	11.230051	-0.713230	0.820357	0.572960	0.063980	-0.138301	-0.719636	0.201053	0.742630	0.609966	-0.275836	-0.018888	
 1204	5.355716	11.483487	-1.703541	0.884259	0.693229	0.174842	-0.142282	-0.716064	0.217705	0.739136	0.616132	-0.271920	-0.010884	
 1205	5.830550	11.189826	-2.716293	0.810272	0.741238	0.172983	-0.147828	-0.713029	0.231038	0.736062	0.621674	-0.267818	-0.002604	
 1206	5.667321	10.180521	-3.014892	0.805805	1.031908	0.114824	-0.148725	-0.708832	0.245088	0.733757	0.627262	-0.260952	0.006852	
 1207	5.339281	10.127663	-3.575650	0.858821	1.394498	0.003701	-0.155781	-0.705861	0.256317	0.731731	0.633450	-0.250962	0.018123	
 1208	4.543391	8.935099	-3.315200	0.567949	1.405658	-0.080147	-0.164956	-0.702460	0.263403	0.731591	0.637471	-0.240056	0.027901	
 1209	3.717010	7.789337	-3.264805	0.458046	1.362891	-0.153039	-0.169877	-0.700828	0.268060	0.731633	0.640912	-0.229320	0.036835	
 1210	3.374639	6.714012	-3.101428	0.368069	1.594411	-0.185729	-0.174416	-0.698501	0.269943	0.732897	0.643350	-0.216318	0.046571	
 1211	3.167004	6.008341	-2.649794	0.203474	1.854824	-0.220228	-0.178588	-0.699341	0.268459	0.735223	0.644587	-0.201587	0.057603	
 1212	3.053641	5.751991	-2.091049	-0.078218	1.943005	-0.272528	-0.183833	-0.699479	0.263304	0.739654	0.643313	-0.185573	0.067991	
 1213	2.746788	4.737067	-1.310569	0.377841	2.040372	-0.143982	-0.191403	-0.696857	0.258042	0.740560	0.645137	-0.169711	0.081039	
 1214	2.383380	5.369564	-1.033075	0.228778	2.033114	-0.122882	-0.198779	-0.695055	0.253806	0.742472	0.645254	-0.153663	0.093652	
 1215	2.643030	5.363398	-0.931441	0.362584	1.870666	-0.037095	-0.205191	-0.690543	0.251455	0.742500	0.646448	-0.139641	0.106298	
 1216	2.668498	5.838581	-1.089322	0.371609	1.978964	-0.020781	-0.212753	-0.683653	0.246659	0.742724	0.647000	-0.124413	0.119470	
 1217	2.261298	6.100278	-1.114850	0.432845	2.098658	-0.029987	-0.220359	-0.679797	0.243419	0.741969	0.647943	-0.108577	0.133651	
 1218	1.724787	6.639404	-1.195763	0.391913	2.033409	-0.049585	-0.226316	-0.674407	0.239907	0.741534	0.648049	-0.092644	0.146891	
 1219	2.136212	7.920344	-1.298607	0.349352	1.857940	-0.027807	-0.231755	-0.666725	0.233921	0.740441	0.648215	-0.078635	0.159315	
 1220	3.055165	9.864739	-1.472037	0.237526	1.758070	-0.044618	-0.237408	-0.661370	0.228689	0.740224	0.647110	-0.064959	0.170578	
 1221	3.483326	11.051232	-1.386533	0.036356	1.630224	-0.067010	-0.238155	-0.657231	0.218539	0.740556	0.645024	-0.052861	0.180903	
 1222	3.668563	11.881029	-1.081784	-0.293575	1.583287	-0.063124	-0.240234	-0.654541	0.207211	0.743289	0.639942	-0.041274	0.190505	
 1223	3.899428	12.611784	-0.581666	-0.584235	1.554992	0.057131	-0.241010	-0.653309	0.196213	0.746912	0.633069	-0.031660	0.200858	
 1224	2.702473	11.555889	0.554090	-0.372770	1.413510	0.157606	-0.242056	-0.652048	0.179447	0.749304	0.627336	-0.022864	0.210879	
 1225	2.329314	12.043510	1.380865	-0.175760	1.031553	0.331903	-0.244823	-0.648267	0.169964	0.749354	0.624299	-0.018016	0.219985	
 1226	7.768601	17.266205	-0.048882	0.276620	1.151735	0.549397	-0.252495	-0.645408	0.165235	0.746544	0.623696	-0.012223	0.231357	
 1227	3.402114	12.286919	2.814481	-0.298967	1.160808	0.195617	-0.255282	-0.645190	0.149545	0.747471	0.619317	-0.005920	0.240206	
 1228	0.374448	10.830666	1.507690	-0.211358	1.029691	0.010744	-0.251721	-0.644102	0.143504	0.748753	0.615241	0.001185	0.246670	
 1229	1.238827	11.595384	0.618219	-0.241882	1.203561	-0.024620	-0.249989	-0.646099	0.136498	0.749677	0.611048	0.009395	0.254001	
 1230	2.207502	12.094463	1.149718	-0.174303	1.462477	0.019041	-0.248973	-0.647887	0.125169	0.750453	0.605976	0.019781	0.263100	
 1231	1.732149	11.621077	2.067648	-0.377730	1.581432	-0.121381	-0.245899	-0.651607	0.108326	0.752107	0.599534	0.031088	0.271896	
 1232	1.392822	11.267017	2.715373	-0.257290	1.575815	-0.141412	-0.242590	-0.654250	0.096597	0.753424	0.593210	0.043067	0.280355	
 1233	0.885267	10.190849	2.948830	-0.220673	1.527517	-0.115599	-0.240196	-0.657311	0.087210	0.753809	0.587784	0.054402	0.288658	
 1234	1.127016	9.320396	3.019786	0.222459	1.504529	0.034108	-0.237381	-0.660411	0.081327	0.751474	0.585086	0.066164	0.297631	
 1235	1.149789	9.300911	2.177858	0.356566	1.519102	0.105338	-0.236958	-0.661233	0.079335	0.747502	0.583859	0.077823	0.307071	
 1236	1.451194	8.933545	1.282676	0.584994	1.499362	0.249231	-0.238895	-0.663008	0.078917	0.742032	0.583763	0.089347	0.317217	
 1237	1.546024	8.629961	1.058301	0.333335	1.488681	0.353082	-0.240127	-0.663354	0.077228	0.737061	0.582392	0.099211	0.328204	
 1238	1.960661	7.828551	0.880149	-0.023823	1.557996	0.471008	-0.244304	-0.663375	0.072947	0.733986	0.577513	0.107847	0.340752	
 1239	1.787473	6.998362	1.101424	0.089708	1.785375	0.704107	-0.251028	-0.662673	0.066374	0.728519	0.573392	0.116998	0.356080	
 1240	1.474094	6.978080	1.222282	0.067449	1.772505	0.765940	-0.258791	-0.661051	0.059614	0.723170	0.568383	0.125726	0.371697	
 1241	1.938785	5.781091	1.716206	0.075489	1.611028	0.804497	-0.270249	-0.659812	0.050605	0.717128	0.564505	0.132880	0.386529	
 1242	2.184214	5.936469	1.878517	-0.048350	1.520311	0.729927	-0.276723	-0.656691	0.044083	0.712430	0.559194	0.139448	0.400374	
 1243	2.455532	5.565835	2.755383	0.131739	1.528672	0.671063	-0.282609	-0.653105	0.039212	0.706314	0.555487	0.146875	0.413501	
 1244	2.611071	5.821414	3.009480	0.216533	1.530034	0.571483	-0.286610	-0.649968	0.036193	0.700378	0.551477	0.155375	0.425680	
 1245	2.509657	5.678221	3.420493	0.342624	1.454670	0.508505	-0.289570	-0.648691	0.033347	0.693541	0.548974	0.163935	0.436753	
 1246	2.627243	6.473146	3.505367	0.499155	1.467519	0.450584	-0.293756	-0.646843	0.031768	0.686309	0.546717	0.173792	0.447075	
 1247	2.782514	7.040989	3.713248	0.575633	1.456046	0.431163	-0.296252	-0.643114	0.033536	0.678204	0.545353	0.183680	0.457045	
 1248	3.235520	7.881697	3.859033	0.628025	1.357231	0.396309	-0.295690	-0.641295	0.037477	0.670365	0.544097	0.193568	0.465940	
 1249	2.939699	7.809112	3.969978	0.616916	1.327864	0.373186	-0.297847	-0.639921	0.040836	0.662235	0.543178	0.202959	0.474563	
 1250	3.616435	9.015323	3.925346	0.801632	1.261955	0.412367	-0.299600	-0.638969	0.047291	0.653254	0.543295	0.212852	0.482477	
 1251	3.454545	9.184965	3.726077	0.812696	1.268439	0.348828	-0.301232	-0.635869	0.053785	0.643999	0.543602	0.222777	0.490032	
 1252	3.153425	9.942159	3.406110	1.023354	1.198185	0.222372	-0.302731	-0.633182	0.063091	0.634567	0.544774	0.234268	0.495646	
 1253	3.122544	10.791345	2.698025	1.080947	1.163634	0.121664	-0.301719	-0.633449	0.073717	0.624893	0.546509	0.245961	0.500341	
 1254	8.877202	17.263830	3.102630	1.705355	1.222541	0.329664	-0.302530	-0.633223	0.089315	0.610748	0.551762	0.260272	0.504782	
 1255	3.022483	12.380331	1.965366	0.020407	1.575394	-0.037574	-0.304892	-0.632448	0.093722	0.606228	0.544245	0.269792	0.513320	
 1256	2.468090	11.430705	1.319697	0.788802	1.549012	0.110013	-0.304266	-0.636977	0.098510	0.597069	0.541318	0.282591	0.520216	
 1257	2.705540	10.772400	1.690674	0.640426	1.296809	0.223575	-0.306520	-0.637779	0.102365	0.588288	0.539453	0.292080	0.526876	
 1258	5.616489	12.721821	0.697736	0.902398	1.252107	0.480635	-0.312871	-0.637910	0.109177	0.577123	0.539526	0.301570	0.533756	
 1259	5.539346	11.159587	0.556120	0.785919	1.218292	0.408408	-0.320102	-0.635669	0.113828	0.566474	0.539283	0.310190	0.540429	
 1260	5.530704	10.035305	0.100808	1.466844	1.105004	0.475837	-0.327527	-0.635664	0.125120	0.552433	0.543027	0.321757	0.544437	
 1261	5.991696	10.251512	-1.153161	1.527892	1.156552	0.395733	-0.332213	-0.633252	0.143043	0.537578	0.546969	0.333860	0.548063	
 1262	5.059073	8.913725	-1.892400	1.514203	1.331673	0.232026	-0.337536	-0.631786	0.158237	0.523437	0.548500	0.347982	0.551425	
 1263	3.869030	7.801416	-2.552807	1.404698	1.404454	0.037266	-0.345077	-0.629793	0.169952	0.509877	0.548832	0.362426	0.554487	
 1264	3.184146	7.090405	-2.606021	1.168731	1.426029	-0.028994	-0.348225	-0.630377	0.179370	0.498336	0.546714	0.376281	0.557833	
 1265	3.176680	6.956017	-2.597115	0.937388	1.503537	0.036708	-0.352064	-0.631048	0.184998	0.486555	0.543805	0.388395	0.562752	
 1266	2.979863	6.606766	-2.239345	0.808635	1.611984	0.110178	-0.352740	-0.629569	0.187117	0.475167	0.539036	0.400134	0.568814	
 1267	2.830055	6.279792	-2.015582	0.840507	1.615025	0.229298	-0.360623	-0.629594	0.188616	0.462037	0.535455	0.410954	0.575262	
 1268	3.075421	6.338319	-1.674424	0.857567	1.569297	0.340567	-0.372068	-0.626543	0.191002	0.448929	0.531728	0.421258	0.581610	
 1269	2.840915	6.689759	-1.406136	0.452890	1.559522	0.243301	-0.379273	-0.622439	0.190868	0.437700	0.526444	0.429216	0.589108	
 1270	3.044337	5.949224	-0.889563	0.944920	1.757842	0.286483	-0.388596	-0.619654	0.189241	0.423374	0.521374	0.440895	0.595429	
 1271	2.915305	6.902350	-1.206897	0.622655	1.536698	0.228567	-0.395568	-0.615784	0.188583	0.411143	0.516593	0.449522	0.601683	
 1272	3.237195	6.881607	-1.182138	1.020056	1.436298	0.194152	-0.402493	-0.613847	0.191510	0.398153	0.512962	0.460508	0.605208	
 1273	3.517764	7.805504	-1.728622	0.999102	1.520462	0.117923	-0.408265	-0.608269	0.194700	0.384434	0.508997	0.471599	0.608873	
 1274	3.872889	8.923340	-2.102268	1.036121	1.574753	0.117191	-0.412709	-0.604044	0.198757	0.370922	0.503878	0.483299	0.612328	
 1275	3.948530	10.123895	-2.459893	0.814296	1.499164	0.176392	-0.420966	-0.600740	0.198008	0.357600	0.499310	0.492578	0.616586	
 1276	4.116095	10.934410	-2.408640	0.520027	1.367194	0.277589	-0.425883	-0.595749	0.197499	0.346488	0.494074	0.499255	0.621757	
 1277	4.191880	10.992738	-1.908903	0.256992	1.120811	0.441849	-0.433519	-0.592529	0.193579	0.335997	0.490986	0.502227	0.627540	
 1278	4.647910	11.032733	-1.724214	0.004090	0.876202	0.557080	-0.440817	-0.587509	0.188772	0.328033	0.488293	0.502460	0.633639	
 1279	4.843602	10.494808	-1.161129	-0.182711	0.682423	0.561199	-0.450393	-0.584180	0.181787	0.321069	0.487003	0.500494	0.639726	
 1280	4.525500	10.219231	-0.845481	-0.152428	0.501033	0.489269	-0.455490	-0.581930	0.177213	0.316136	0.485763	0.498760	0.644462	
 1281	8.060343	14.474165	-0.289349	0.293488	0.341770	0.514075	-0.462787	-0.580663	0.174891	0.308808	0.487887	0.498921	0.646283	
 1282	6.102731	13.746463	-2.226068	-0.763407	0.648197	0.119754	-0.465681	-0.580237	0.167891	0.308480	0.481930	0.495410	0.653569	
 1283	2.007184	8.655834	0.236170	0.312308	0.328048	0.101495	-0.465645	-0.581859	0.163055	0.303833	0.482081	0.497697	0.653897	
 1284	1.483241	9.241063	-1.114324	0.046704	0.484196	-0.027769	-0.465999	-0.585232	0.160708	0.301349	0.478929	0.499633	0.655883	
 1285	2.845680	11.726415	-2.126282	-0.055547	0.973095	-0.067106	-0.467010	-0.589129	0.155236	0.296381	0.472822	0.502294	0.660529	
 1286	2.228023	10.340761	-0.810684	0.069330	1.171190	-0.044260	-0.467437	-0.593180	0.140304	0.290418	0.465054	0.506430	0.665516	
 1287	2.215937	11.058276	-1.012582	0.275666	1.398983	-0.086042	-0.468788	-0.594989	0.133236	0.281852	0.456818	0.512515	0.670227	
 1288	1.873498	10.309888	-0.287964	0.156623	1.359814	-0.081623	-0.470288	-0.599171	0.122779	0.274668	0.447702	0.517755	0.675315	
 1289	1.575790	9.732447	-0.205915	0.298436	1.375440	-0.000988	-0.472714	-0.602156	0.114555	0.265509	0.439885	0.523374	0.679769	
 1290	1.801860	9.263571	-0.101733	0.496610	1.217969	0.104293	-0.475866	-0.603874	0.107373	0.256200	0.433447	0.529513	0.682716	
 1291	2.502772	9.400596	-0.582410	0.720559	1.135771	0.224590	-0.479345	-0.604196	0.101528	0.244864	0.429343	0.536215	0.684236	
 1292	2.718829	8.921974	-0.600189	0.776659	1.086534	0.249184	-0.483595	-0.602822	0.101275	0.233959	0.425121	0.543105	0.685253	
 1293	3.110415	8.773196	-0.975741	0.565850	1.081469	0.225691	-0.487709	-0.600909	0.098498	0.223491	0.420857	0.548426	0.687139	
 1294	3.276590	8.795274	-1.277669	0.407612	0.941977	0.240290	-0.490632	-0.599538	0.096459	0.214931	0.416602	0.552326	0.689335	
 1295	3.848872	8.295621	-1.110628	0.439230	0.985118	0.195163	-0.493615	-0.599827	0.090245	0.205681	0.412433	0.556558	0.691258	
 1296	4.152701	7.968077	-0.836285	-0.139117	0.720128	0.163314	-0.497664	-0.600769	0.083150	0.201098	0.408077	0.556425	0.695287	
 1297	4.398900	7.270389	-0.778806	0.213085	0.865301	0.218906	-0.500504	-0.599869	0.077364	0.193252	0.404327	0.558663	0.697903	
 1298	4.242657	6.920131	-0.469048	0.150427	0.987859	0.227024	-0.502164	-0.600691	0.069221	0.185518	0.398980	0.560713	0.701426	
 1299	3.967913	6.781935	-0.172016	0.209337	0.955273	0.245466	-0.505891	-0.599148	0.060980	0.176957	0.394667	0.562867	0.704348	
 1300	3.842986	6.808314	-0.123497	0.372766	0.845312	0.239511	-0.506656	-0.599420	0.055578	0.169021	0.390710	0.566057	0.705944	
 1301	3.783567	6.609398	-0.152952	0.132367	0.753935	0.171389	-0.508478	-0.598884	0.049584	0.162381	0.387209	0.567490	0.708277	
 1302	3.692611	6.282908	-0.168575	0.052219	0.741526	0.162966	-0.509273	-0.597519	0.043669	0.156801	0.382961	0.568458	0.711063	
 1303	3.811802	6.314125	-0.226337	0.108027	0.823513	0.241872	-0.509967	-0.597189	0.037076	0.149342	0.379274	0.569474	0.713826	
 1304	4.173704	6.968767	-0.174364	0.046240	0.929498	0.270873	-0.512523	-0.595901	0.029174	0.141923	0.374237	0.570180	0.717425	
 1305	4.127296	7.066017	-0.027788	0.123767	0.881377	0.270694	-0.513982	-0.593860	0.022825	0.133848	0.370257	0.571177	0.720244	
 1306	4.346076	7.846821	0.104387	0.016507	0.858657	0.191013	-0.513110	-0.591771	0.014219	0.127493	0.365174	0.571759	0.723522	
 1307	5.073936	8.401224	0.106384	0.307177	0.925385	0.148074	-0.513436	-0.589542	0.007411	0.119364	0.360340	0.574481	0.725175	
 1308	4.695725	8.502333	0.103812	0.215272	1.086236	-0.023413	-0.512219	-0.589681	0.000533	0.112503	0.352564	0.577432	0.727746	
 1309	6.014509	10.728983	0.188307	0.522844	1.076897	-0.041224	-0.509868	-0.590845	-0.004148	0.104091	0.345691	0.582436	0.728307	
 1310	7.999711	13.955217	-0.616965	0.238719	1.194981	-0.066627	-0.507152	-0.592233	-0.012019	0.096778	0.336822	0.585651	0.730889	
 1311	3.999959	9.929755	-0.304199	0.097068	1.280076	-0.146671	-0.502273	-0.597139	-0.023280	0.089380	0.327318	0.587944	0.734300	
 1312	3.700426	10.662799	-0.363649	0.821533	0.901244	-0.032708	-0.497382	-0.599943	-0.028624	0.081622	0.321215	0.594890	0.732301	
 1313	5.761826	13.175688	-2.641176	0.706447	0.818536	0.052434	-0.497260	-0.601013	-0.026091	0.073470	0.316718	0.600478	0.730560	
 1314	4.982339	11.059840	-1.938390	0.752833	0.675901	0.144252	-0.496017	-0.600934	-0.026946	0.065968	0.313178	0.606032	0.728212	
 1315	5.072530	10.870998	-2.776710	0.802474	0.545965	0.254167	-0.496116	-0.601515	-0.023618	0.057667	0.311882	0.611414	0.724967	
 1316	5.302614	10.491043	-3.059473	0.713979	0.461847	0.177834	-0.495264	-0.600938	-0.016333	0.051325	0.310015	0.616324	0.722081	
 1317	5.064602	10.274119	-3.379958	0.680404	0.393731	0.054799	-0.492096	-0.601365	-0.011722	0.045760	0.308484	0.621320	0.718822	
 1318	4.693959	9.514472	-3.083309	0.558143	0.424134	-0.122091	-0.490610	-0.603001	-0.012989	0.042278	0.304914	0.625934	0.716552	
 1319	3.802706	8.596048	-2.811457	0.394725	0.514922	-0.300298	-0.484693	-0.608738	-0.013095	0.039373	0.300138	0.630005	0.715165	
 1320	2.897419	7.723344	-2.309745	0.259578	0.522468	-0.416232	-0.478074	-0.611974	-0.014457	0.038279	0.293863	0.633347	0.714878	
 1321	2.420911	6.780841	-1.659657	0.124591	0.520823	-0.414319	-0.469709	-0.617779	-0.017082	0.036969	0.288172	0.635807	0.715081	
 1322	2.377450	6.537763	-1.500500	0.124647	0.547471	-0.339417	-0.462425	-0.621147	-0.020676	0.035558	0.282127	0.637911	0.715688	
 1323	2.371136	6.376405	-1.333915	0.170528	0.544171	-0.184408	-0.456303	-0.622935	-0.024321	0.032338	0.277709	0.640024	0.715682	
 1324	2.638220	5.884558	-1.256338	0.178285	0.496544	-0.023356	-0.452302	-0.624046	-0.026622	0.028836	0.274046	0.641563	0.715866	
 1325	2.614962	5.843208	-1.237317	-0.180549	0.456788	0.014761	-0.449587	-0.624241	-0.031666	0.025719	0.271405	0.640560	0.717886	
 1326	2.574432	5.381710	-1.177341	0.249986	0.614461	0.125973	-0.449964	-0.621978	-0.034064	0.020205	0.267844	0.642203	0.717932	
 1327	2.881833	5.785257	-1.303372	0.078824	0.445560	0.190135	-0.448954	-0.620719	-0.037056	0.015200	0.266464	0.642557	0.718252	
 1328	3.068264	6.132652	-1.321544	0.095632	0.436482	0.222303	-0.448418	-0.616579	-0.038967	0.010549	0.264752	0.642757	0.718789	
 1329	3.738052	7.306311	-1.421312	0.106706	0.429089	0.182312	-0.448817	-0.615092	-0.041912	0.005634	0.263433	0.643309	0.718836	
 1330	4.649333	8.740616	-1.853202	0.067147	0.480916	0.081624	-0.448388	-0.613918	-0.043606	0.001783	0.260483	0.643643	0.719631	
 1331	5.185851	9.676554	-2.001425	0.137982	0.449156	0.072974	-0.447492	-0.609338	-0.046021	-0.002563	0.258316	0.644701	0.719463	
 1332	4.591370	9.657171	-1.970176	-0.003494	0.376923	0.141812	-0.447682	-0.606591	-0.049871	-0.005999	0.256496	0.644343	0.720414	
 1333	5.226692	10.635505	-2.396009	0.218601	0.319590	0.374806	-0.447084	-0.604255	-0.050600	-0.011883	0.257193	0.645213	0.719312	
 1334	5.708100	11.712709	-2.574344	0.239251	0.263770	0.498806	-0.451474	-0.598997	-0.050804	-0.017783	0.258458	0.645657	0.718339	
 1335	5.215633	11.653518	-2.405062	0.252666	0.119950	0.476955	-0.456291	-0.593849	-0.049165	-0.023189	0.261230	0.646530	0.716394	
 1336	7.501866	14.255077	-1.435793	0.398387	0.034293	0.506102	-0.458209	-0.586303	-0.045699	-0.028071	0.264133	0.648090	0.713740	
 1337	6.788460	14.386993	-2.742343	-0.472523	0.316156	0.449871	-0.463130	-0.579971	-0.046188	-0.032624	0.265526	0.643773	0.716929	
 1338	5.546107	11.678322	-0.383397	0.303195	0.222059	0.447102	-0.464713	-0.572205	-0.049250	-0.038056	0.266684	0.644725	0.715375	
 1339	2.843483	9.340055	0.776388	-0.181457	0.214901	0.170041	-0.464563	-0.568998	-0.054008	-0.040680	0.266885	0.643227	0.716503	
 1340	4.316148	11.228762	0.839325	0.077284	0.260105	-0.102147	-0.461635	-0.568081	-0.057149	-0.041821	0.264304	0.643994	0.716705	
 1341	3.575532	11.299315	1.213642	-0.150496	0.302752	-0.397935	-0.457311	-0.567900	-0.063422	-0.040983	0.260155	0.644154	0.718127	
 1342	3.034069	11.123951	1.291677	-0.170053	0.247626	-0.551183	-0.448616	-0.569626	-0.066902	-0.038168	0.254864	0.644301	0.720044	
 1343	2.431640	10.446374	1.541959	-0.079379	0.195097	-0.540062	-0.434428	-0.573049	-0.070989	-0.035740	0.250464	0.645329	0.720792	
 1344	2.021498	10.058438	1.293099	-0.033310	0.051489	-0.455836	-0.427450	-0.573708	-0.072691	-0.032691	0.247135	0.646253	0.721258	
 1345	1.583379	9.270304	0.913175	0.085524	-0.115544	-0.380878	-0.418977	-0.575624	-0.072710	-0.029755	0.245869	0.648145	0.720119	
 1346	1.692571	8.710103	0.340679	0.155793	-0.271058	-0.296914	-0.414253	-0.577085	-0.070556	-0.026231	0.245822	0.650119	0.718491	
 1347	1.959377	8.079784	-0.103753	0.205378	-0.333166	-0.195873	-0.408616	-0.577481	-0.065252	-0.023463	0.247229	0.652464	0.715973	
 1348	2.062249	7.398760	-0.375543	0.155148	-0.362832	-0.114047	-0.403981	-0.577385	-0.062144	-0.020649	0.249019	0.653984	0.714051	
 1349	2.034453	6.709146	-0.402885	0.092688	-0.321914	-0.034522	-0.402043	-0.576959	-0.059071	-0.018801	0.251385	0.655109	0.712239	
 1350	2.321837	6.682608	-0.595606	0.039371	-0.259927	-0.014041	-0.399085	-0.573157	-0.055882	-0.017083	0.253111	0.655519	0.711293	
 1351	2.876912	6.188879	-0.497804	0.147331	-0.144737	0.018834	-0.396955	-0.572119	-0.054125	-0.016902	0.254540	0.656861	0.709547	
 1352	2.864945	5.599649	0.118552	0.080402	-0.146956	0.049219	-0.394132	-0.569504	-0.053905	-0.016477	0.255866	0.657378	0.708602	
 1353	3.033392	6.282954	-0.065199	-0.012915	-0.165909	0.001873	-0.390983	-0.565769	-0.049368	-0.015627	0.257352	0.657615	0.707862	
 1354	3.251484	6.082923	0.253227	0.039238	-0.117039	-0.026449	-0.388846	-0.565661	-0.050299	-0.014757	0.257974	0.658026	0.707272	
 1355	3.455276	6.455305	0.440755	0.046670	-0.097755	-0.027332	-0.385492	-0.562386	-0.049634	-0.014307	0.258773	0.658728	0.706335	
 1356	3.535689	6.453572	0.703426	0.115773	-0.112007	-0.009839	-0.384428	-0.559461	-0.048586	-0.013786	0.259455	0.659634	0.705249	
 1357	3.692406	6.716156	0.718427	0.183025	-0.142766	0.059167	-0.382002	-0.556186	-0.045840	-0.014010	0.261119	0.661048	0.703304	
 1358	4.508657	7.818863	0.409599	0.324765	-0.177771	0.142698	-0.379708	-0.551976	-0.043089	-0.014673	0.263237	0.663027	0.700633	
 1359	4.876853	8.361979	0.410753	0.326681	-0.197051	0.187626	-0.379149	-0.548161	-0.036310	-0.015832	0.266109	0.665076	0.697574	
 1360	5.093749	9.152325	0.169948	0.320984	-0.186091	0.212482	-0.378540	-0.544111	-0.033937	-0.016918	0.268738	0.666821	0.694869	
 1361	5.622118	10.251988	-0.151958	0.337650	-0.200754	0.200179	-0.377621	-0.538509	-0.030318	-0.018183	0.271709	0.668866	0.691709	
 1362	5.581802	10.624302	-0.355509	0.205109	-0.178630	0.171573	-0.375266	-0.535836	-0.026382	-0.018719	0.274025	0.669896	0.689782	
 1363	5.033660	10.419845	-0.263247	0.136021	-0.145035	0.113812	-0.373145	-0.531581	-0.024578	-0.019214	0.276060	0.670743	0.688132	
 1364	5.207365	11.221025	-0.470326	0.119817	-0.061727	0.040406	-0.368344	-0.528306	-0.023151	-0.019396	0.276703	0.671515	0.687115	
 1365	10.402478	17.269233	-2.126682	1.002040	-0.017785	0.179596	-0.367977	-0.524023	-0.017714	-0.023613	0.278131	0.678057	0.679944	
 1366	3.108933	9.102424	0.836151	-0.429318	0.091250	-0.003567	-0.363264	-0.522901	-0.023814	-0.023002	0.277554	0.675169	0.683068	
 1367	2.424338	10.227055	-0.759538	0.353049	0.251090	-0.063334	-0.357383	-0.522063	-0.021418	-0.025532	0.275597	0.677867	0.681095	
 1368	2.177297	9.996581	-1.003532	0.583110	-0.092381	-0.136052	-0.352345	-0.520363	-0.020534	-0.025573	0.275119	0.682273	0.676875	
 1369	2.913886	12.465482	-2.529295	0.755577	-0.354781	-0.300154	-0.345450	-0.519382	-0.010180	-0.023429	0.275487	0.688476	0.670491	
 1370	3.329347	12.770733	-2.960005	0.769755	-0.519927	-0.382481	-0.337298	-0.521144	-0.000589	-0.019391	0.276115	0.694825	0.663779	
 1371	3.638764	13.167093	-3.707811	0.612870	-0.538445	-0.487155	-0.326323	-0.523376	0.011718	-0.014289	0.276350	0.700553	0.657763	
 1372	3.154570	11.836408	-3.427945	0.208079	-0.456514	-0.583745	-0.314798	-0.527216	0.019222	-0.007811	0.275197	0.703625	0.655071	
 1373	2.512645	10.355099	-3.007065	-0.077525	-0.271076	-0.635240	-0.305748	-0.528920	0.020580	-0.001670	0.272648	0.705147	0.654544	
 1374	1.760595	8.603277	-2.410133	-0.286461	-0.130061	-0.627824	-0.294554	-0.532252	0.018307	0.004152	0.269040	0.705015	0.656166	
 1375	1.292503	7.106018	-1.803593	-0.527986	0.011662	-0.553222	-0.283625	-0.536105	0.013067	0.009014	0.265153	0.703319	0.659511	
 1376	1.100854	6.015591	-1.263146	-0.571762	0.135331	-0.386386	-0.274976	-0.538305	0.005833	0.012142	0.261456	0.700615	0.663801	
 1377	1.177912	5.361012	-0.807740	-0.515807	0.266000	-0.189076	-0.268743	-0.539524	-0.000872	0.012798	0.258401	0.698011	0.667716	
 1378	1.397776	5.012324	-0.604869	-0.411215	0.298797	0.009480	-0.263672	-0.539431	-0.007633	0.011727	0.256387	0.695317	0.671313	
 1379	1.681534	5.014959	-0.448299	-0.276906	0.346414	0.147243	-0.262117	-0.536981	-0.012579	0.008964	0.255148	0.693415	0.673791	
 1380	1.910000	5.132553	-0.448713	-0.288992	0.339895	0.180304	-0.258868	-0.537319	-0.017190	0.006147	0.254051	0.691078	0.676633	
 1381	2.123185	4.989470	-0.479097	-0.203100	0.312881	0.236421	-0.260558	-0.533443	-0.022858	0.002824	0.253654	0.689407	0.678505	
 1382	2.467774	5.585176	-0.735823	-0.255225	0.243730	0.260700	-0.259654	-0.533548	-0.025476	0.000038	0.253758	0.687062	0.680847	
 1383	2.973944	6.330413	-0.825112	-0.081000	0.272223	0.264532	-0.258854	-0.530600	-0.030062	-0.003512	0.253830	0.686121	0.681759	
 1384	3.343878	7.523322	-0.858878	-0.161230	0.240492	0.218884	-0.258231	-0.528948	-0.033073	-0.006229	0.253666	0.684502	0.683426	
 1385	3.741736	8.458172	-0.908445	-0.000847	0.177171	0.145635	-0.256499	-0.528829	-0.034431	-0.008527	0.253569	0.684396	0.683544	
 1386	4.165469	10.078820	-1.356328	0.023447	0.038732	0.062530	-0.255020	-0.526973	-0.038321	-0.009263	0.253699	0.684443	0.683439	
 1387	4.052606	10.853858	-1.370961	0.126919	0.004524	-0.000251	-0.252240	-0.527930	-0.036552	-0.009705	0.253771	0.685596	0.682250	
 1388	4.185472	11.830691	-1.519563	0.293175	-0.159558	-0.002040	-0.248693	-0.529399	-0.034875	-0.009324	0.254785	0.687661	0.679794	
 1389	3.436974	11.838547	-1.501832	0.255159	-0.248602	-0.011531	-0.245603	-0.528937	-0.031861	-0.008257	0.256471	0.689737	0.677065	
 1390	2.296336	11.277790	-1.045288	0.358225	-0.375188	0.057499	-0.243461	-0.530461	-0.027333	-0.006961	0.259343	0.692085	0.673580	
 1391	9.203554	18.465419	-2.143861	1.669079	-0.482854	0.499043	-0.245498	-0.532592	-0.013453	-0.011375	0.265984	0.702235	0.660295	
 1392	-0.053283	9.392976	0.160691	-0.848600	-0.426008	0.157421	-0.244622	-0.535627	-0.011436	-0.007149	0.269956	0.696277	0.665034	
 1393	3.384234	11.885108	-1.338751	0.399328	-0.374118	0.270171	-0.245848	-0.537082	-0.004849	-0.007425	0.274335	0.698495	0.660901	
 1394	4.260322	11.700086	0.210708	-0.295492	-0.184083	0.163218	-0.247553	-0.537877	-0.008447	-0.006392	0.276680	0.696152	0.662405	
 1395	4.844747	13.045444	-0.648217	-0.513683	0.045530	0.010934	-0.247128	-0.541373	-0.010612	-0.005353	0.276510	0.692954	0.665828	
 1396	4.095544	11.704109	0.900150	-0.418623	0.169062	-0.191710	-0.246373	-0.545990	-0.016784	-0.004074	0.274045	0.690729	0.669161	
 1397	3.524901	11.322267	1.235508	-0.623820	0.164150	-0.397421	-0.242288	-0.549977	-0.023000	-0.000813	0.270217	0.687820	0.673711	
 1398	2.398965	9.739015	1.438027	-0.506122	0.088858	-0.512552	-0.235312	-0.555299	-0.027847	0.003414	0.266060	0.685825	0.677380	
 1399	1.515808	8.165478	1.778205	-0.075202	0.088851	-0.529204	-0.229721	-0.559096	-0.029283	0.006649	0.261780	0.686876	0.677959	
 1400	0.920510	7.836092	1.114394	-0.046250	-0.018247	-0.616289	-0.223416	-0.565360	-0.029372	0.011091	0.257633	0.688210	0.678136	
 1401	0.849718	7.048513	0.799787	0.308323	-0.140854	-0.608290	-0.217253	-0.574428	-0.027239	0.015492	0.254348	0.691970	0.675459	
 1402	0.909550	7.018503	0.153723	0.188260	-0.286525	-0.587194	-0.212637	-0.579667	-0.022206	0.020979	0.252214	0.694723	0.673282	
 1403	1.300371	6.430604	-0.305392	0.479485	-0.390260	-0.417001	-0.207646	-0.584093	-0.014595	0.025414	0.251935	0.699026	0.668764	
 1404	1.541166	6.827056	-0.849633	0.331903	-0.306785	-0.334692	-0.204490	-0.588125	-0.007766	0.028978	0.251698	0.702048	0.665535	
 1405	1.720663	6.388543	-0.857477	0.251761	-0.281594	-0.245222	-0.202715	-0.593954	-0.003191	0.032085	0.251813	0.704377	0.662883	
 1406	1.940617	6.380294	-1.045020	0.214389	-0.242399	-0.179633	-0.201220	-0.600565	0.000819	0.034461	0.252192	0.706216	0.660659	
 1407	2.017819	6.343417	-1.074250	0.214336	-0.221322	-0.178616	-0.199848	-0.604780	0.005124	0.036791	0.252362	0.708128	0.658419	
 1408	2.107668	6.432745	-1.057452	0.083857	-0.264346	-0.226099	-0.199470	-0.610529	0.010011	0.039957	0.252501	0.709196	0.657029	
 1409	2.176233	6.678518	-0.968015	-0.018764	-0.276034	-0.326857	-0.196307	-0.614412	0.011494	0.044228	0.251889	0.709905	0.656225	
 1410	2.316835	6.956307	-0.756780	-0.005852	-0.232904	-0.405048	-0.193591	-0.623315	0.011268	0.048571	0.250507	0.710823	0.655452	
 1411	2.567743	7.783624	-0.782333	0.044326	-0.207894	-0.468607	-0.190316	-0.632388	0.012013	0.053115	0.248467	0.712289	0.654283	
 1412	2.925946	8.571566	-0.564659	0.233611	-0.202181	-0.442687	-0.185825	-0.639626	0.014199	0.056888	0.246728	0.714847	0.651830	
 1413	3.013353	9.592767	-1.054780	0.253408	-0.346027	-0.388242	-0.182504	-0.648226	0.018698	0.061355	0.246269	0.717342	0.648851	
 1414	3.050757	10.580157	-1.061816	0.200765	-0.185810	-0.388301	-0.177786	-0.656906	0.022884	0.064730	0.244781	0.719525	0.646665	
 1415	2.280880	11.232229	-1.425665	0.101881	-0.207329	-0.381790	-0.175811	-0.666539	0.025944	0.068528	0.243360	0.721059	0.645100	
 1416	1.480319	11.466957	-1.528488	0.133749	-0.274811	-0.342173	-0.172663	-0.675227	0.029494	0.072408	0.242726	0.722605	0.643183	
 1417	2.653103	13.830602	-1.430678	0.247318	-0.208178	-0.236084	-0.171885	-0.686448	0.031517	0.074934	0.242445	0.724683	0.640656	
 1418	2.952235	16.269787	-4.786352	0.189620	0.124245	-0.340507	-0.175048	-0.694631	0.040019	0.075772	0.239292	0.726856	0.639279	
 1419	0.540995	11.777519	-1.297915	0.087627	-0.031767	-0.249996	-0.174521	-0.707191	0.039332	0.077519	0.237637	0.728075	0.638299	
 1420	-1.078234	11.124333	-1.925345	-0.088560	-0.059109	-0.190667	-0.176658	-0.716528	0.042265	0.079395	0.236528	0.727961	0.638610	
 1421	-0.131790	12.442910	-2.919936	0.175775	-0.015538	-0.250507	-0.182516	-0.726242	0.047897	0.080887	0.234786	0.729769	0.637001	
 1422	-0.291597	11.955030	-2.804564	0.067976	-0.162028	-0.292932	-0.183966	-0.738538	0.048825	0.083794	0.233705	0.730800	0.635839	
 1423	-0.416772	11.601679	-3.561467	0.448278	-0.167978	-0.267604	-0.188412	-0.747147	0.054563	0.085924	0.232997	0.734263	0.631813	
 1424	-0.173387	11.155717	-3.268334	0.139791	-0.192844	-0.281092	-0.192785	-0.757961	0.058936	0.088808	0.232241	0.735676	0.630046	
 1425	-0.160496	10.654029	-3.204021	0.222856	-0.213458	-0.288497	-0.194973	-0.769267	0.066117	0.091968	0.231439	0.737721	0.627492	
 1426	-0.105199	10.248083	-2.986363	-0.034556	-0.184821	-0.374408	-0.199524	-0.780432	0.069403	0.095779	0.229773	0.738239	0.626924	
 1427	-0.267723	9.691325	-2.653728	-0.211825	-0.113449	-0.437744	-0.201030	-0.793068	0.069119	0.100168	0.226802	0.737985	0.627619	
 1428	-0.438920	8.817416	-2.150517	-0.426412	0.002652	-0.471323	-0.203362	-0.804172	0.062251	0.104090	0.222846	0.736410	0.630242	
 1429	-0.427396	8.207862	-1.708934	-0.484188	0.066526	-0.418410	-0.203739	-0.817797	0.055872	0.107663	0.218567	0.734541	0.633314	
 1430	-0.450760	7.648011	-1.381719	-0.523190	0.074586	-0.338126	-0.206987	-0.829161	0.045866	0.110418	0.215014	0.732077	0.636898	
 1431	-0.266255	7.325776	-0.956166	-0.521378	0.158046	-0.303555	-0.210843	-0.841916	0.036468	0.112682	0.210915	0.729765	0.640516	
 1432	-0.291701	7.371671	-1.116031	-0.507302	0.105857	-0.296466	-0.211673	-0.854796	0.025926	0.114897	0.207469	0.727293	0.644050	
 1433	-0.422227	7.360274	-0.850076	-0.377629	0.076378	-0.361006	-0.211661	-0.869216	0.019561	0.117833	0.203606	0.725881	0.646341	
 1434	-0.239324	7.184099	-0.796801	-0.224870	0.124000	-0.427960	-0.211136	-0.883088	0.013236	0.120177	0.199401	0.725481	0.647668	
 1435	-0.316089	7.557830	-1.095833	-0.322877	0.108714	-0.489024	-0.206843	-0.897836	0.005135	0.123592	0.194437	0.724674	0.649436	
 1436	-0.712050	7.296914	-0.966281	-0.321754	0.058370	-0.461480	-0.202350	-0.914118	-0.004314	0.126812	0.190283	0.723587	0.651255	
 1437	-0.814973	7.416763	-1.032159	-0.327075	-0.014936	-0.326287	-0.194720	-0.927976	-0.012321	0.130079	0.187262	0.722244	0.652974	
 1438	-0.406993	8.476340	-1.583296	-0.226326	-0.070272	-0.205866	-0.191531	-0.942687	-0.016615	0.132377	0.185909	0.721102	0.654161	
 1439	0.064117	9.012487	-1.656766	-0.103072	-0.136511	-0.120539	-0.188547	-0.958131	-0.019862	0.134755	0.185452	0.720673	0.654277	
 1440	-0.123897	8.898858	-1.713902	-0.186763	-0.213999	-0.068438	-0.187070	-0.974308	-0.025224	0.137113	0.186074	0.719333	0.655086	
 1441	0.330820	9.458036	-1.624575	-0.067406	-0.185771	0.035905	-0.182629	-0.989096	-0.027432	0.138745	0.187116	0.718782	0.655049	
 1442	-0.094864	9.360550	-1.666219	-0.168105	-0.170686	0.070186	-0.182185	-1.005172	-0.030183	0.139847	0.188471	0.717357	0.655988	
 1443	-0.024391	9.883462	-1.788186	-0.097030	-0.259180	0.142570	-0.181529	-1.020001	-0.031030	0.141357	0.190717	0.716313	0.656156	
 1444	-0.218872	10.842712	-1.715419	-0.089832	-0.145302	0.184831	-0.179548	-1.036710	-0.031151	0.141379	0.192834	0.715210	0.656736	
 1445	2.446216	15.122794	-1.365707	0.319397	-0.162423	0.255988	-0.182529	-1.052409	-0.027563	0.140623	0.195863	0.716802	0.654261	
 1446	-1.952262	11.604615	-1.015069	-0.679164	-0.105417	0.065210	-0.180468	-1.069864	-0.028760	0.142305	0.196031	0.712112	0.658952	
 1447	1.651264	15.400067	-2.183325	0.430822	-0.035016	0.281149	-0.184266	-1.086233	-0.018013	0.140247	0.198547	0.714571	0.655971	
 1448	-0.963882	12.286474	0.237055	-0.153809	-0.094886	0.306233	-0.185990	-1.100109	-0.020336	0.139246	0.201110	0.712863	0.657261	
 1449	-0.899062	12.801391	-0.095358	0.016621	-0.019515	0.397225	-0.192018	-1.113799	-0.013170	0.137173	0.203733	0.712348	0.657447	
 1450	-1.322408	11.767930	0.334027	-0.214448	-0.003399	0.442465	-0.201696	-1.128458	-0.007323	0.134751	0.206581	0.710070	0.659520	
 1451	-0.981886	10.560624	0.916929	-0.233079	0.129469	0.589799	-0.218222	-1.140831	-0.005091	0.130903	0.209200	0.707655	0.662061	
 1452	-0.282303	10.185824	1.019481	-0.326420	0.224184	0.681304	-0.230949	-1.153580	-0.003958	0.125513	0.212073	0.704387	0.665666	
 1453	-0.199464	10.129994	1.107301	-0.386598	0.390642	0.528152	-0.241642	-1.162646	-0.002907	0.120572	0.212282	0.701311	0.669747	
 1454	-0.741820	8.739576	2.092543	-0.157705	0.289357	0.439522	-0.250667	-1.172858	-0.004708	0.115961	0.213202	0.699708	0.671943	
 1455	-1.235533	8.856577	2.066655	-0.247837	0.114596	0.338958	-0.257266	-1.182603	-0.003939	0.113969	0.214051	0.697546	0.674257	
 1456	-1.417564	8.803994	1.952416	-0.072271	-0.018222	0.326443	-0.266240	-1.191156	0.000974	0.112079	0.216335	0.696383	0.675047	
 1457	-1.419602	9.114102	1.518812	0.011714	-0.092920	0.338066	-0.270776	-1.200211	0.007503	0.111042	0.218814	0.695686	0.675138	
 1458	-1.317964	9.242928	1.107724	0.062076	-0.124724	0.381232	-0.272834	-1.207373	0.015021	0.109230	0.222343	0.695174	0.674808	
 1459	-1.089247	9.425133	0.861341	0.071419	-0.134767	0.452106	-0.279522	-1.210496	0.019895	0.107636	0.225912	0.694540	0.674531	
 1460	-0.858896	9.501978	0.614408	0.092142	-0.213518	0.550258	-0.286884	-1.216549	0.026554	0.105228	0.231235	0.693725	0.673947	
 1461	-0.738334	9.433357	0.517866	0.122081	-0.251869	0.585987	-0.300514	-1.217192	0.036769	0.103467	0.236526	0.692947	0.673182	
 1462	-0.403246	9.462413	0.451955	0.131371	-0.247301	0.583119	-0.309028	-1.219137	0.043816	0.100974	0.242328	0.692231	0.672234	
 1463	-0.050632	9.687497	0.166979	0.101328	-0.209980	0.539798	-0.317443	-1.219846	0.050353	0.099312	0.246953	0.691408	0.671645	
 1464	0.190256	9.514849	0.320447	0.282220	-0.188745	0.559406	-0.327710	-1.219216	0.058530	0.096191	0.252327	0.691769	0.669727	
 1465	0.093544	9.807708	0.104782	0.093688	-0.156881	0.501301	-0.336984	-1.218655	0.065967	0.094472	0.256290	0.690993	0.669267	
 1466	0.091199	9.665366	0.156667	0.164345	-0.067498	0.484390	-0.343997	-1.217834	0.069675	0.091305	0.260202	0.690828	0.668367	
 1467	0.194882	10.210656	-0.486629	0.235060	-0.069833	0.509291	-0.353657	-1.215546	0.077246	0.088596	0.263733	0.691027	0.667142	
 1468	0.151086	10.140242	-0.338538	0.261292	-0.084302	0.569215	-0.363472	-1.212697	0.084281	0.084720	0.268415	0.691231	0.665565	
 1469	0.297510	10.073942	-0.540399	0.232437	-0.090890	0.653943	-0.376874	-1.207012	0.091663	0.081233	0.273041	0.690967	0.664390	
 1470	0.787685	9.965826	-0.729664	0.212782	-0.054405	0.711126	-0.391674	-1.202715	0.099202	0.076331	0.278440	0.690427	0.663292	
 1471	1.272578	9.893299	-0.904374	0.237017	-0.057104	0.741376	-0.407368	-1.197367	0.104158	0.072026	0.283413	0.689924	0.662189	
 1472	1.539504	9.456080	-0.678257	0.132579	-0.022950	0.738601	-0.423757	-1.190765	0.105343	0.066944	0.288702	0.688726	0.661685	
 1473	1.746075	9.527355	-0.898809	0.173323	0.079981	0.754848	-0.442422	-1.184683	0.112660	0.061780	0.292780	0.687793	0.661365	
 1474	2.093258	9.310200	-0.734089	0.144438	0.088899	0.749202	-0.459824	-1.176920	0.114199	0.055820	0.297380	0.686642	0.661039	
 1475	2.676172	9.447401	-0.795766	0.104243	0.119719	0.747254	-0.476487	-1.168835	0.115121	0.050622	0.301078	0.685230	0.661248	
 1476	2.715974	9.034310	-0.838724	0.115421	0.110561	0.698313	-0.491862	-1.159252	0.116282	0.044928	0.305135	0.683983	0.661091	
 1477	2.859320	8.758422	-0.855133	0.121049	0.084850	0.658447	-0.507743	-1.152363	0.117371	0.040483	0.308447	0.682878	0.660984	
 1478	3.294122	8.828602	-1.007363	0.097678	0.071742	0.604660	-0.521933	-1.145186	0.118973	0.035725	0.312086	0.681728	0.660736	
 1479	3.919840	8.985732	-1.083476	0.124670	0.058909	0.556388	-0.535800	-1.138065	0.119258	0.032085	0.314875	0.680909	0.660444	
 1480	4.379477	8.989874	-1.274417	0.081611	0.087860	0.498206	-0.548123	-1.131176	0.119639	0.027969	0.317658	0.679954	0.660284	
 1481	4.064619	8.305294	-1.111541	0.119031	0.060607	0.478859	-0.556939	-1.124641	0.120909	0.024800	0.319923	0.679310	0.659979	
 1482	4.177721	8.109010	-1.175230	0.163640	0.103927	0.435768	-0.565803	-1.118586	0.121098	0.020727	0.322182	0.679069	0.659268	
 1483	4.337402	8.024449	-1.166814	0.086260	0.092400	0.409721	-0.576034	-1.112352	0.122272	0.017859	0.323785	0.678413	0.659243	
 1484	4.534402	8.246635	-1.393719	0.085173	0.120769	0.383971	-0.584234	-1.106974	0.122895	0.014267	0.325554	0.677801	0.659088	
 1485	4.552614	8.155790	-1.391877	0.111362	0.082392	0.369929	-0.593022	-1.102596	0.121861	0.011601	0.326982	0.677420	0.658825	
 1486	4.576704	8.306768	-1.381642	0.080640	0.028965	0.292081	-0.596672	-1.100369	0.123532	0.009252	0.328725	0.677051	0.658374	
 1487	4.577503	8.547377	-1.437796	0.023799	-0.026447	0.216043	-0.601491	-1.097478	0.122196	0.008585	0.329843	0.676575	0.658313	
 1488	4.501918	8.621071	-1.453818	-0.019125	-0.052426	0.119014	-0.603662	-1.094609	0.122634	0.008255	0.330937	0.676106	0.658249	
 1489	4.362574	8.633880	-1.455521	-0.058228	-0.107710	0.038447	-0.603072	-1.095871	0.121449	0.009547	0.331404	0.675667	0.658448	
 1490	4.235051	8.672251	-1.409320	-0.071187	-0.165572	-0.016282	-0.602695	-1.094783	0.121356	0.011046	0.332323	0.675290	0.658349	
 1491	4.289718	8.857432	-1.415784	-0.095390	-0.188655	-0.019240	-0.599678	-1.096235	0.119923	0.013365	0.332945	0.674782	0.658513	
 1492	4.203166	8.884254	-1.367434	-0.119605	-0.194281	-0.014652	-0.595880	-1.096610	0.118824	0.015209	0.334055	0.674070	0.658640	
 1493	4.093722	8.836798	-1.331321	-0.145699	-0.196254	-0.019258	-0.596427	-1.098189	0.117963	0.017727	0.334729	0.673218	0.659105	
 1494	4.165703	8.846519	-1.295723	-0.136323	-0.206285	0.005570	-0.595051	-1.097712	0.117256	0.019574	0.336047	0.672317	0.659302	
 1495	4.173641	8.665608	-1.224952	-0.109255	-0.202450	0.018538	-0.591937	-1.098203	0.117984	0.021741	0.337035	0.671564	0.659498	
 1496	4.263358	8.489236	-1.092351	-0.117668	-0.175922	0.020502	-0.592291	-1.099438	0.115803	0.023224	0.338252	0.670734	0.659669	
 1497	4.221456	8.414049	-1.068638	-0.072079	-0.132535	0.013451	-0.591321	-1.100551	0.114511	0.024802	0.338769	0.670243	0.659844	
 1498	4.260604	8.592178	-1.340500	-0.015292	-0.141399	-0.028998	-0.590302	-1.100125	0.117124	0.026034	0.339449	0.670260	0.659431	
 1499	4.389688	8.753206	-1.416767	-0.026636	-0.085542	-0.025968	-0.588681	-1.100708	0.118825	0.027377	0.339421	0.670210	0.659441	
 1500	4.216383	8.656516	-1.349536	0.035812	-0.067703	-0.029408	-0.586720	-1.099751	0.116959	0.027945	0.339625	0.670582	0.658934	
 1501	4.162895	8.723975	-1.277212	0.031108	-0.048461	-0.040345	-0.584612	-1.102439	0.120665	0.028917	0.339289	0.670969	0.658671	
 1502	4.117349	8.856460	-1.343281	0.013394	-0.059564	-0.044106	-0.582972	-1.101962	0.120109	0.029604	0.339334	0.671243	0.658337	
 1503	4.066608	9.001687	-1.452305	-0.034233	-0.037825	-0.036635	-0.581020	-1.103143	0.120618	0.030686	0.338948	0.671190	0.658541	
 1504	4.070343	8.798163	-1.329024	-0.021010	-0.087266	-0.019383	-0.578796	-1.102597	0.121571	0.031514	0.339330	0.671145	0.658351	
 1505	4.071394	8.764834	-1.214420	0.016239	-0.057690	-0.023774	-0.577893	-1.103648	0.121614	0.032455	0.339190	0.671371	0.658148	
 1506	4.113754	8.660128	-1.224713	0.019918	-0.038426	-0.033818	-0.576275	-1.104082	0.120507	0.032911	0.339166	0.671659	0.657844	
 1507	4.112146	8.612026	-1.215389	0.036727	-0.055763	-0.055117	-0.574410	-1.106380	0.121797	0.033955	0.338824	0.672121	0.657494	
 1508	4.183532	8.646563	-1.225095	0.051627	-0.059369	-0.078212	-0.571795	-1.105831	0.122909	0.034738	0.338650	0.672759	0.656890	
 1509	4.111891	8.606263	-1.289547	0.068322	-0.035423	-0.101084	-0.569634	-1.106295	0.125181	0.035819	0.337892	0.673585	0.656376	
 1510	4.105095	8.575371	-1.306414	0.155005	-0.025729	-0.106462	-0.565776	-1.106747	0.128096	0.036212	0.337342	0.675006	0.655177	
 1511	4.179426	8.716862	-1.392094	0.181967	0.003694	-0.141396	-0.561090	-1.108610	0.130092	0.036888	0.336113	0.676719	0.654002	
 1512	4.057035	8.684218	-1.511279	0.139856	0.061243	-0.137364	-0.558220	-1.109656	0.131063	0.036947	0.334776	0.678170	0.653181	
 1513	3.844126	8.772215	-1.605525	0.112804	0.063885	-0.118847	-0.555380	-1.111882	0.134020	0.037284	0.333293	0.679374	0.652669	
 1514	3.776929	8.762595	-1.643535	0.094175	0.064719	-0.088396	-0.551803	-1.112982	0.136372	0.037153	0.332247	0.680360	0.652183	
 1515	3.900391	8.836420	-1.672401	0.057855	0.055323	-0.051648	-0.551018	-1.113112	0.136688	0.037278	0.331269	0.680979	0.652026	
 1516	4.086433	8.898854	-1.694431	0.015882	0.070642	-0.018473	-0.547964	-1.114605	0.136060	0.036911	0.330630	0.681224	0.652117	
 1517	4.280903	8.904830	-1.640269	0.009379	0.067817	-0.009351	-0.547907	-1.115725	0.134443	0.036811	0.329857	0.681392	0.652337	
 1518	4.368840	8.823128	-1.574128	-0.027939	0.083160	-0.015790	-0.546918	-1.117126	0.133549	0.036487	0.329138	0.681346	0.652767	
 1519	4.379990	8.727182	-1.560324	-0.047558	0.097702	-0.030487	-0.545676	-1.115044	0.132858	0.036479	0.328026	0.681220	0.653459	
 1520	4.407304	8.530006	-1.504072	-0.038226	0.097739	-0.046164	-0.544967	-1.116960	0.131404	0.036288	0.327000	0.681209	0.653994	
 1521	4.365064	8.332029	-1.447513	-0.017718	0.119894	-0.021082	-0.544416	-1.117511	0.129426	0.035937	0.325840	0.681249	0.654551	
 1522	4.556217	8.368544	-1.488830	0.010234	0.142982	0.031586	-0.543837	-1.117024	0.128133	0.034771	0.325063	0.681317	0.654929	
 1523	4.691333	8.285952	-1.597465	0.051299	0.134968	0.078571	-0.543156	-1.118242	0.126153	0.033399	0.324536	0.681483	0.655090	
 1524	4.754875	8.034196	-1.670784	0.000951	0.141987	0.101593	-0.546003	-1.116687	0.125726	0.031812	0.324238	0.681258	0.655549	
 1525	4.935308	7.975617	-1.755586	-0.031775	0.172009	0.096126	-0.547342	-1.115858	0.124582	0.030294	0.323593	0.680829	0.656385	
 1526	5.018673	7.861482	-1.749372	-0.057081	0.221346	0.070532	-0.549381	-1.116040	0.119368	0.028558	0.322543	0.680344	0.657482	
 1527	5.097036	7.768338	-1.716724	-0.070222	0.247823	0.029136	-0.549398	-1.117613	0.116134	0.027034	0.320968	0.679891	0.658785	
 1528	5.372659	7.797035	-1.674764	-0.079594	0.267885	0.022677	-0.548331	-1.117743	0.111521	0.025369	0.319275	0.679416	0.660162	
 1529	5.828630	7.905089	-1.791024	-0.075873	0.284363	0.097305	-0.548265	-1.118728	0.107366	0.023099	0.317963	0.678700	0.661613	
 1530	6.168895	7.747855	-1.881830	-0.046979	0.319364	0.193339	-0.551567	-1.118432	0.102612	0.019852	0.317090	0.677896	0.662961	
 1531	6.699845	7.953676	-2.055311	0.002349	0.365459	0.276463	-0.556114	-1.117009	0.098731	0.015512	0.316526	0.677120	0.664138	
 1532	7.019637	8.026584	-2.168752	0.052657	0.396921	0.349443	-0.561515	-1.114590	0.095880	0.010387	0.316199	0.676468	0.665057	
 1533	6.986070	7.593079	-2.065620	0.054420	0.453781	0.330436	-0.567938	-1.111258	0.090436	0.004833	0.315475	0.675833	0.666110	
 1534	6.779837	7.146252	-1.995264	0.056157	0.515254	0.300457	-0.573286	-1.107427	0.088812	-0.000778	0.314010	0.675324	0.667333	
 1535	6.409911	6.609526	-1.831381	0.084088	0.562263	0.298165	-0.577981	-1.105987	0.084521	-0.007029	0.312386	0.674933	0.668454	
 1536	6.210264	6.338757	-1.819928	0.076669	0.576959	0.358288	-0.584325	-1.102998	0.078008	-0.013507	0.310875	0.674322	0.669675	
 1537	6.060947	5.937861	-1.737633	0.086047	0.626643	0.497951	-0.593176	-1.096534	0.072989	-0.021610	0.310193	0.673237	0.670869	
 1538	6.189881	5.858016	-1.619057	0.045160	0.621845	0.605753	-0.602533	-1.089815	0.065402	-0.029950	0.310019	0.671553	0.672315	
 1539	6.370997	5.918641	-1.674552	0.060066	0.632005	0.638039	-0.617124	-1.082063	0.058429	-0.039017	0.310259	0.669743	0.673543	
 1540	6.414921	5.756111	-1.541675	-0.003323	0.611386	0.557583	-0.629477	-1.073503	0.050008	-0.046806	0.309806	0.667782	0.675201	
 1541	6.466845	5.676389	-1.475363	-0.087318	0.590595	0.395923	-0.641648	-1.063640	0.037339	-0.053568	0.308786	0.665639	0.677278	
 1542	6.607639	5.633208	-1.263392	-0.124753	0.604004	0.223416	-0.650308	-1.057199	0.022706	-0.058667	0.306182	0.663819	0.679820	
 1543	6.737114	5.806220	-1.215253	-0.145551	0.637665	-0.004301	-0.652302	-1.052724	0.010611	-0.062907	0.302244	0.662405	0.682577	
 1544	6.634391	5.977065	-1.068048	-0.091663	0.626869	-0.268999	-0.650662	-1.049255	-0.003406	-0.064898	0.296174	0.662234	0.685212	
 1545	6.553562	6.415428	-0.993691	-0.067576	0.581033	-0.550558	-0.644638	-1.049434	-0.017195	-0.065309	0.288975	0.662942	0.687558	
 1546	6.415979	6.879564	-1.172420	-0.037802	0.481136	-0.804744	-0.630847	-1.052957	-0.029732	-0.062809	0.280282	0.664715	0.689674	
 1547	5.751012	6.989028	-0.908240	-0.063885	0.430590	-0.975447	-0.614907	-1.057867	-0.040281	-0.059336	0.271281	0.666642	0.691718	
 1548	5.389353	7.912385	-1.310773	-0.121613	0.340454	-0.969470	-0.599373	-1.062230	-0.051248	-0.054522	0.262460	0.668243	0.693969	
 1549	5.436079	8.582959	-1.403177	-0.138229	0.336833	-0.730634	-0.587740	-1.063977	-0.060422	-0.051923	0.255754	0.668961	0.695978	
 1550	5.413456	9.312710	-1.251058	-0.234963	0.364909	-0.393886	-0.580950	-1.061994	-0.074129	-0.050976	0.250636	0.668181	0.698654	
 1551	5.226948	9.790942	-1.070809	-0.159892	0.291322	-0.070395	-0.583937	-1.056914	-0.085477	-0.052612	0.248667	0.667071	0.700296	
 1552	5.360283	10.585277	-0.696666	-0.097142	0.254213	0.100970	-0.589880	-1.049380	-0.094037	-0.054729	0.247550	0.666052	0.701497	
 1553	7.045062	12.819567	-0.293337	0.052557	0.078873	0.282945	-0.597761	-1.040022	-0.100020	-0.057947	0.249307	0.665658	0.700991	
 1554	7.010272	13.218993	-1.281104	-0.280666	0.159422	0.356827	-0.612128	-1.029578	-0.101990	-0.060764	0.250668	0.662749	0.703020	
 1555	8.616056	14.249341	-0.221247	0.225116	0.020038	0.297807	-0.621764	-1.017653	-0.104170	-0.064140	0.252829	0.663557	0.701181	
 1556	7.403612	14.251121	0.085474	-0.180149	0.157023	-0.115496	-0.628429	-1.007132	-0.108721	-0.063874	0.251018	0.662533	0.702823	
 1557	4.217664	12.665416	0.933252	-0.225077	0.210361	-0.518828	-0.623640	-1.005282	-0.115873	-0.061598	0.246673	0.662089	0.704979	
 1558	2.855681	11.942118	1.739070	-0.178177	0.186166	-0.532167	-0.614292	-1.004847	-0.124359	-0.058595	0.241887	0.662068	0.706911	
 1559	3.597567	12.042511	1.693232	-0.229523	0.270178	-0.360457	-0.608303	-1.003808	-0.133318	-0.057740	0.238081	0.661112	0.709164	
 1560	2.827709	10.747777	2.051078	-0.317842	0.256052	-0.290190	-0.605071	-0.999688	-0.146153	-0.056573	0.234473	0.659441	0.712011	
 1561	3.447900	10.282973	1.804397	-0.262568	0.139765	-0.257865	-0.601940	-0.997750	-0.155818	-0.055442	0.232227	0.658025	0.714143	
 1562	3.736241	9.321309	1.788590	-0.307250	0.125635	-0.264558	-0.599054	-0.995296	-0.165223	-0.053621	0.229704	0.656417	0.716573	
 1563	3.531857	8.233933	1.664337	-0.265101	0.052504	-0.279608	-0.598582	-0.990797	-0.173951	-0.051728	0.227912	0.655030	0.718551	
 1564	3.431871	7.210673	1.506471	-0.197739	-0.027810	-0.256897	-0.597614	-0.989081	-0.180548	-0.049206	0.226478	0.654253	0.719889	
 1565	3.121164	6.156657	1.327866	-0.083797	-0.078430	-0.200665	-0.598148	-0.987725	-0.183638	-0.047428	0.226041	0.654020	0.720357	
 1566	2.952250	5.518234	1.045554	0.067457	-0.146253	-0.116888	-0.600065	-0.986705	-0.186153	-0.045739	0.226245	0.654885	0.719615	
 1567	2.908982	5.121354	0.732838	0.113314	-0.213827	-0.050809	-0.604438	-0.986153	-0.183617	-0.044604	0.227667	0.655778	0.718424	
 1568	2.997255	4.869547	0.303112	0.160982	-0.274999	0.011560	-0.611524	-0.983246	-0.181355	-0.043208	0.229594	0.657075	0.716709	
 1569	3.225566	4.656260	0.195778	0.211422	-0.293057	0.082444	-0.618076	-0.982097	-0.176009	-0.042748	0.232422	0.658389	0.714617	
 1570	3.506891	4.458373	0.191111	0.237548	-0.273668	0.146124	-0.627350	-0.979920	-0.171224	-0.042502	0.235185	0.659906	0.712324	
 1571	3.785967	4.918648	-0.161670	0.207688	-0.294978	0.183653	-0.635097	-0.979703	-0.164097	-0.042772	0.238705	0.660940	0.710175	
 1572	3.893679	4.807883	-0.067071	0.201197	-0.299627	0.183578	-0.646150	-0.980798	-0.159207	-0.042537	0.241907	0.662101	0.708021	
 1573	4.223947	5.152698	-0.114594	0.276642	-0.272617	0.203975	-0.655416	-0.979566	-0.154301	-0.043300	0.245389	0.663540	0.705425	
 1574	4.663401	5.893206	-0.122306	0.293240	-0.222148	0.182887	-0.664232	-0.980665	-0.148198	-0.043801	0.247987	0.665299	0.702823	
 1575	5.193811	6.391774	0.050065	0.237165	-0.175817	0.150596	-0.671531	-0.980218	-0.145184	-0.044774	0.250468	0.666522	0.700720	
 1576	5.415678	6.886032	-0.110985	0.207301	-0.187031	0.164229	-0.679990	-0.982211	-0.139740	-0.045166	0.252724	0.667693	0.698768	
 1577	6.029133	7.271702	0.003044	0.276411	-0.201343	0.257134	-0.688838	-0.982874	-0.134301	-0.046861	0.256099	0.668903	0.696265	
 1578	6.845346	8.392557	-0.253082	0.300473	-0.132479	0.378051	-0.700694	-0.982084	-0.129970	-0.049349	0.259349	0.670132	0.693705	
 1579	7.148438	9.021794	-0.035980	0.294999	-0.153601	0.445129	-0.713279	-0.980824	-0.124742	-0.052773	0.263661	0.670913	0.691067	
 1580	7.782202	10.028353	-0.186664	0.421478	-0.063061	0.426159	-0.725085	-0.977684	-0.119169	-0.056382	0.266670	0.672775	0.687810	
 1581	6.940370	10.483176	-0.175779	0.283283	-0.047292	0.257630	-0.736950	-0.977953	-0.115122	-0.059233	0.268998	0.673862	0.685596	
 1582	10.681287	14.317129	0.472911	0.805409	-0.087839	0.270239	-0.746752	-0.978723	-0.108141	-0.062640	0.270872	0.678737	0.679721	
 1583	7.507559	12.856016	-0.792596	-0.237801	0.118157	0.088020	-0.755337	-0.980577	-0.105377	-0.064073	0.271257	0.676581	0.681581	
 1584	5.450471	11.676734	-0.354278	0.529948	-0.072284	-0.169670	-0.758725	-0.987042	-0.101546	-0.063841	0.270203	0.680739	0.677871	
 1585	3.380255	11.072702	-0.816833	0.487602	-0.477765	-0.563324	-0.756664	-0.996122	-0.091119	-0.058708	0.269677	0.685640	0.673591	
 1586	2.534336	11.597366	-1.451210	0.614171	-0.935545	-0.792508	-0.746764	-1.012254	-0.072672	-0.048588	0.270100	0.692449	0.667233	
 1587	2.160817	11.135628	-2.324731	0.918023	-1.373939	-0.824163	-0.735247	-1.029675	-0.041706	-0.036574	0.273387	0.701212	0.657437	
 1588	2.051600	10.388628	-3.028731	1.105076	-1.666330	-0.813667	-0.725922	-1.044370	-0.002550	-0.022536	0.278112	0.711194	0.645251	
 1589	1.835565	9.888784	-3.695111	0.927619	-1.980155	-0.795362	-0.714758	-1.059219	0.043006	-0.006347	0.285210	0.719593	0.633088	
 1590	1.788211	9.204885	-3.782117	0.935569	-2.166290	-0.753078	-0.699429	-1.071487	0.090071	0.011359	0.293306	0.727624	0.620004	
 1591	2.068104	8.610979	-3.870121	0.688857	-1.921151	-0.754768	-0.679365	-1.086020	0.136739	0.027594	0.299962	0.733740	0.609005	
 1592	2.305531	8.271047	-3.987713	0.183064	-1.726163	-0.729359	-0.660591	-1.097308	0.167059	0.044168	0.305075	0.736480	0.602142	
 1593	2.271765	6.931343	-3.344043	0.033409	-1.372976	-0.586237	-0.649341	-1.108393	0.184597	0.057324	0.309226	0.737852	0.597217	
 1594	2.146870	6.312643	-3.380150	-0.268392	-1.022516	-0.423924	-0.638890	-1.117696	0.193420	0.068245	0.311985	0.736972	0.595718	
 1595	1.625352	5.281923	-2.902489	-0.413160	-0.753524	-0.195324	-0.633199	-1.128015	0.193632	0.075879	0.314964	0.734682	0.596055	
 1596	1.292149	5.026939	-2.670363	-0.422584	-0.601144	0.007731	-0.633300	-1.135239	0.188170	0.081595	0.318230	0.731710	0.597220	
 1597	1.566202	5.052401	-2.461025	-0.435725	-0.487457	0.156798	-0.638556	-1.140971	0.182265	0.085255	0.322150	0.728323	0.598745	
 1598	1.908536	5.275216	-2.384885	-0.521701	-0.373349	0.231958	-0.643551	-1.145110	0.179343	0.088280	0.325580	0.724165	0.601490	
 1599	2.155433	5.341630	-2.203910	-0.532919	-0.326654	0.282861	-0.652085	-1.149248	0.172048	0.090322	0.329348	0.719873	0.604281	
 1600	2.501123	6.350392	-2.391557	-0.551877	-0.246112	0.260095	-0.661313	-1.152132	0.160983	0.092351	0.332157	0.715493	0.607628	
 1601	3.228854	7.137738	-2.670526	-0.305783	-0.253899	0.305205	-0.671864	-1.155542	0.149024	0.092962	0.335845	0.712522	0.608998	
 1602	3.368716	7.761431	-3.009887	-0.324579	-0.240277	0.300576	-0.681574	-1.158494	0.144077	0.093941	0.339096	0.709356	0.610740	
 1603	3.352692	7.947650	-2.738644	-0.376732	-0.237811	0.318070	-0.689742	-1.163280	0.139070	0.094581	0.342710	0.705892	0.612634	
 1604	3.960494	9.381160	-3.434611	-0.175725	-0.148604	0.385871	-0.702677	-1.164574	0.136615	0.093877	0.346129	0.703398	0.613688	
 1605	3.811141	10.164523	-3.530341	-0.134506	-0.260195	0.382530	-0.716101	-1.166177	0.134660	0.093434	0.350565	0.701155	0.613805	
 1606	3.641221	10.427343	-3.597574	-0.031633	-0.379640	0.449334	-0.727579	-1.167628	0.135907	0.093453	0.355963	0.699073	0.613069	
 1607	4.150236	11.576943	-3.787616	0.149688	-0.573908	0.557917	-0.744362	-1.166532	0.144606	0.093124	0.363789	0.697615	0.610179	
 1608	3.543970	11.513549	-3.342853	-0.012313	-0.627946	0.554909	-0.760044	-1.164021	0.155002	0.094167	0.371423	0.694966	0.608440	
 1609	5.818661	14.601232	-3.746006	0.810446	-0.865383	0.701934	-0.778289	-1.159745	0.173817	0.092518	0.382559	0.696575	0.599893	
 1610	3.367630	13.273754	-4.430584	-0.329155	-1.233295	0.586940	-0.796170	-1.153063	0.200579	0.098845	0.393662	0.691200	0.597915	
 1611	4.961054	13.084939	-2.879571	0.075169	-0.955062	0.567229	-0.813607	-1.149197	0.217434	0.101418	0.403582	0.688600	0.593856	
 1612	5.578238	12.924068	-2.242298	-0.618209	-0.642975	0.529343	-0.829737	-1.146061	0.218317	0.105198	0.410359	0.682158	0.595986	
 1613	5.216863	12.305342	-1.545625	-0.653783	-0.477988	0.581196	-0.843971	-1.141094	0.216006	0.107350	0.416689	0.675469	0.598823	
 1614	5.472006	12.205408	-1.179026	-0.650010	-0.484464	0.519267	-0.864133	-1.137580	0.210217	0.110223	0.422345	0.668916	0.601688	
 1615	5.712960	11.100771	-0.513849	-0.828010	-0.485688	0.382482	-0.877779	-1.135187	0.201087	0.114345	0.427099	0.661820	0.605397	
 1616	5.494256	9.843528	-0.158270	-0.791816	-0.414930	0.211491	-0.894757	-1.134869	0.186363	0.119191	0.430050	0.655678	0.609046	
 1617	4.668848	8.258684	0.181591	-0.667089	-0.331621	-0.000584	-0.904243	-1.136166	0.178113	0.123910	0.431459	0.651219	0.611885	
 1618	3.783395	6.980510	-0.017125	-0.490298	-0.236060	-0.195920	-0.906912	-1.139594	0.175618	0.128764	0.430980	0.648816	0.613770	
 1619	3.043499	5.740675	-0.254552	-0.350571	-0.221431	-0.329115	-0.906677	-1.147967	0.171765	0.133406	0.429939	0.647771	0.614612	
 1620	2.604525	4.991864	-0.686877	-0.130887	-0.121043	-0.412036	-0.905937	-1.157141	0.173147	0.137289	0.427803	0.648625	0.614347	
 1621	2.185205	4.536941	-1.069950	-0.030378	-0.070860	-0.430829	-0.902239	-1.166244	0.174720	0.140200	0.425590	0.650154	0.613610	
 1622	1.765343	4.011782	-1.288385	0.156083	-0.057727	-0.398086	-0.899555	-1.174998	0.179308	0.142357	0.423539	0.652773	0.611748	
 1623	1.728884	4.008732	-1.400628	0.294239	-0.105448	-0.314263	-0.899995	-1.181803	0.188538	0.143397	0.422738	0.655733	0.608888	
 1624	1.918458	4.658051	-1.797469	0.355684	-0.099574	-0.261681	-0.901104	-1.187537	0.200015	0.144141	0.422102	0.658910	0.605716	
 1625	2.174447	4.967968	-1.942882	0.376432	-0.207700	-0.220905	-0.904135	-1.192802	0.214316	0.144929	0.422635	0.661813	0.601979	
 1626	2.755198	5.539553	-2.050136	0.395122	-0.230588	-0.163157	-0.903518	-1.198835	0.229776	0.145766	0.423476	0.664594	0.598109	
 1627	3.492703	6.488675	-2.266144	0.346432	-0.178717	-0.136474	-0.906186	-1.203542	0.246382	0.145951	0.424343	0.666978	0.594787	
 1628	3.794283	7.135017	-2.316768	0.238086	-0.133577	-0.174280	-0.910083	-1.208453	0.258628	0.146866	0.424284	0.668991	0.592338	
 1629	3.895716	7.683895	-2.400478	0.197008	-0.143018	-0.201185	-0.915129	-1.213392	0.268259	0.147800	0.424288	0.670792	0.590061	
 1630	4.213455	7.935809	-2.357556	0.195215	-0.160486	-0.158069	-0.916864	-1.219684	0.277280	0.148973	0.424420	0.672433	0.587799	
 1631	4.642396	8.925718	-2.760885	0.359542	-0.263112	-0.004654	-0.922847	-1.222889	0.291690	0.148830	0.426697	0.674149	0.584211	
 1632	4.495836	9.353595	-2.927805	0.240214	-0.274771	0.049615	-0.930059	-1.224050	0.307388	0.149358	0.428950	0.674986	0.581454	
 1633	4.570336	10.930560	-3.305005	0.389519	-0.374686	0.118302	-0.940153	-1.221626	0.324827	0.149094	0.432736	0.676146	0.577353	
 1634	3.993461	11.411368	-3.491253	0.270029	-0.350532	0.088094	-0.949289	-1.219644	0.343523	0.149776	0.435713	0.676853	0.574101	
 1635	6.449639	14.942110	-4.655745	0.961831	-0.475981	0.272434	-0.961383	-1.212691	0.370662	0.146790	0.441933	0.680398	0.565869	
 1636	4.687453	13.863724	-4.431046	-0.115672	-0.581264	0.222462	-0.968422	-1.204037	0.393604	0.149989	0.446522	0.677948	0.564366	
 1637	1.166197	11.306833	-3.101349	-0.127072	-0.356951	0.034355	-0.978231	-1.201471	0.403441	0.152391	0.448772	0.676511	0.563661	
 1638	0.230493	12.267276	-3.532214	0.158757	-0.728424	-0.195026	-0.980866	-1.201394	0.418382	0.157695	0.451753	0.677205	0.558968	
 1639	1.290269	13.715961	-4.997715	0.006314	-1.225940	-0.492909	-0.970970	-1.204866	0.445975	0.168429	0.455376	0.677492	0.552512	
 1640	1.831900	13.633160	-4.354920	0.073570	-1.269722	-0.623357	-0.952915	-1.212735	0.472155	0.180119	0.458217	0.678581	0.545089	
 1641	2.005701	13.229582	-4.439078	-0.183894	-1.242029	-0.692728	-0.926222	-1.225076	0.493474	0.192934	0.460009	0.678484	0.539284	
 1642	1.920458	11.755987	-3.963256	-0.134768	-1.021605	-0.654391	-0.903317	-1.235037	0.513516	0.203999	0.460761	0.678793	0.534157	
 1643	1.699996	10.712929	-3.785910	-0.251440	-0.930590	-0.668626	-0.883975	-1.242177	0.531633	0.214856	0.460730	0.678633	0.530115	
 1644	1.165491	9.252848	-3.408445	-0.600299	-0.795060	-0.672568	-0.862657	-1.253140	0.536850	0.226565	0.459036	0.676839	0.529002	
 1645	0.758995	7.718754	-3.091714	-0.719760	-0.628749	-0.550673	-0.844431	-1.264953	0.536241	0.236875	0.457047	0.674155	0.529635	
 1646	0.513971	6.086407	-2.427087	-0.786755	-0.507042	-0.353400	-0.835716	-1.275085	0.524348	0.245748	0.455443	0.670415	0.531717	
 1647	0.555899	5.006631	-2.176973	-0.801647	-0.370368	-0.100772	-0.831214	-1.283215	0.513018	0.252273	0.454817	0.665749	0.535049	
 1648	0.665281	4.002996	-1.611121	-0.602037	-0.202086	0.220523	-0.834955	-1.282725	0.504361	0.255171	0.455820	0.661047	0.538640	
 1649	0.963734	3.928093	-1.648709	-0.376233	-0.167604	0.502199	-0.848287	-1.277193	0.499442	0.255145	0.459147	0.656367	0.541541	
 1650	1.305365	4.110865	-1.857332	-0.229039	-0.077725	0.664175	-0.869087	-1.265174	0.499890	0.253103	0.463313	0.651910	0.544328	
 1651	1.456092	3.989954	-1.832324	-0.210359	-0.054669	0.748215	-0.897164	-1.249772	0.498583	0.250197	0.468029	0.647221	0.547226	
 1652	1.595887	4.122003	-1.765313	-0.085307	-0.088768	0.778534	-0.921473	-1.234190	0.498324	0.246897	0.473303	0.642919	0.549255	
 1653	2.203345	5.189042	-2.212084	0.025542	-0.146028	0.698710	-0.941542	-1.219869	0.506340	0.243689	0.478751	0.639453	0.550012	
 1654	2.584659	6.479295	-2.568219	0.039232	-0.144241	0.549116	-0.959613	-1.205444	0.515957	0.241391	0.483120	0.636731	0.550362	
 1655	2.572579	7.521514	-2.715835	0.073471	-0.142266	0.368353	-0.975384	-1.192551	0.525298	0.239707	0.486538	0.635082	0.549993	
 1656	2.589748	8.219517	-2.882095	0.150885	-0.194071	0.347814	-0.988048	-1.179473	0.535242	0.238277	0.490143	0.633806	0.548884	
 1657	3.102549	10.065617	-3.542034	0.241532	-0.379754	0.379759	-0.999833	-1.166917	0.552990	0.237192	0.495324	0.632428	0.546286	
 1658	3.246871	10.577513	-3.296133	0.201426	-0.372675	0.355714	-1.008403	-1.152803	0.568293	0.236593	0.500053	0.630929	0.543966	
 1659	3.443989	11.750922	-3.415312	0.264811	-0.426436	0.302783	-1.016793	-1.138086	0.587494	0.236088	0.505019	0.629902	0.540779	
 1660	4.262419	12.678632	-3.839831	0.578145	-0.521918	0.288366	-1.022600	-1.123731	0.609798	0.234877	0.510981	0.630372	0.535128	
 1661	4.814673	14.390762	-5.232361	0.313873	-0.951073	0.219732	-1.019081	-1.099409	0.651300	0.237844	0.518285	0.628719	0.528700	
 1662	4.975982	12.961482	-3.176790	0.511344	-0.598544	0.320767	-1.022686	-1.081680	0.674330	0.237246	0.524646	0.628363	0.523088	
 1663	6.060173	13.877994	-3.234299	-0.189177	-0.117826	0.279037	-1.027587	-1.066075	0.688687	0.237263	0.526677	0.625635	0.524307	
 1664	5.210464	14.089108	-2.636385	-0.415073	-0.003500	0.140539	-1.032526	-1.058511	0.685140	0.238727	0.526571	0.622751	0.527175	
 1665	4.548841	13.508854	-1.378619	-0.560141	-0.088678	-0.008325	-1.034335	-1.056641	0.676761	0.242037	0.525728	0.619573	0.530243	
 1666	4.243977	12.738942	-0.384070	-0.584048	-0.194336	-0.205293	-1.036001	-1.057836	0.662998	0.247384	0.524041	0.617125	0.532296	
 1667	3.697936	11.484338	0.262327	-0.622909	-0.300060	-0.389267	-1.025712	-1.063311	0.657694	0.254379	0.521725	0.614973	0.533763	
 1668	2.858999	10.369891	0.296199	-0.574343	-0.374946	-0.578396	-1.008524	-1.070062	0.657227	0.262751	0.518671	0.613996	0.533809	
 1669	2.103442	9.188825	-0.017376	-0.467162	-0.426579	-0.764597	-0.988302	-1.083894	0.655245	0.271729	0.515012	0.614157	0.532670	
 1670	0.860895	7.573999	-0.235361	-0.350531	-0.473425	-0.854618	-0.964041	-1.095027	0.657573	0.280971	0.511289	0.615420	0.529997	
 1671	0.173985	6.857329	-0.742934	-0.148813	-0.627088	-0.820902	-0.939493	-1.107924	0.660429	0.289851	0.509099	0.616867	0.525623	
 1672	0.305208	6.268642	-1.315672	-0.111498	-0.639721	-0.725986	-0.913518	-1.117226	0.672120	0.298160	0.507622	0.618140	0.520887	
 1673	0.179270	5.640478	-1.607688	-0.127037	-0.721359	-0.560399	-0.893185	-1.120927	0.681527	0.306123	0.507493	0.617992	0.516552	
 1674	-0.073584	4.957993	-1.516817	0.101901	-0.800488	-0.274545	-0.875059	-1.120272	0.696205	0.311953	0.510211	0.617485	0.510962	
 1675	0.247665	5.379868	-2.214325	0.174580	-0.771566	-0.050300	-0.862424	-1.112202	0.717460	0.316037	0.514349	0.616076	0.505980	
 1676	0.572241	5.170919	-2.240763	0.164633	-0.816518	0.172520	-0.854342	-1.100832	0.734861	0.319330	0.520033	0.613464	0.501254	
 1677	0.992760	5.538232	-2.408136	0.074270	-0.814304	0.334598	-0.850696	-1.088304	0.753466	0.322198	0.526374	0.609358	0.497797	
 1678	1.272826	5.732968	-2.403601	0.007282	-0.822931	0.484712	-0.848706	-1.073030	0.772540	0.324739	0.533410	0.604211	0.494922	
 1679	1.604889	6.129665	-2.407822	-0.074688	-0.837195	0.566490	-0.849320	-1.058975	0.787952	0.327297	0.540711	0.597965	0.492897	
 1680	2.002534	6.630010	-2.407020	-0.070824	-0.894080	0.603805	-0.850486	-1.044488	0.802533	0.330018	0.548447	0.591441	0.490399	
 1681	2.914722	8.266232	-3.000477	0.098996	-1.041776	0.622071	-0.849295	-1.025473	0.824018	0.332443	0.557545	0.584925	0.486300	
 1682	4.199191	9.245939	-3.111162	-0.033168	-1.162936	0.675084	-0.844854	-1.005352	0.846530	0.336101	0.566970	0.577135	0.482178	
 1683	4.677606	10.259832	-3.112857	-0.042725	-1.068556	0.728002	-0.840589	-0.988120	0.867785	0.338785	0.576187	0.569028	0.479000	
 1684	4.962690	12.343620	-2.940788	-0.005490	-1.095846	0.680692	-0.835945	-0.966463	0.889263	0.341748	0.585225	0.561374	0.474952	
 1685	4.050999	12.020140	-1.981881	-0.262974	-0.996400	0.507062	-0.828795	-0.953732	0.903282	0.346236	0.591927	0.553538	0.472588	
 1686	4.311482	14.744552	-2.380303	0.440366	-1.264538	0.442439	-0.817878	-0.936835	0.924157	0.348485	0.601798	0.548624	0.464122	
 1687	4.438024	17.247653	-3.432081	-0.100034	-1.696270	0.168874	-0.789671	-0.916426	0.958495	0.357357	0.610207	0.540936	0.455336	
 1688	0.048401	11.143737	-0.017258	-0.479609	-1.569353	0.146286	-0.761263	-0.913926	0.976535	0.368041	0.616334	0.532230	0.448785	
 1689	-3.488465	8.747630	0.041187	-0.137391	-1.885774	0.189618	-0.730613	-0.908764	0.996095	0.377943	0.625172	0.523199	0.438841	
 1690	-0.236083	12.777794	-2.083181	0.407930	-2.601309	0.058142	-0.682921	-0.895052	1.035195	0.388596	0.638200	0.514668	0.420488	
 1691	1.668388	15.301248	-3.508655	-0.010295	-2.660265	-0.132629	-0.621108	-0.890702	1.068377	0.402768	0.648397	0.504741	0.403231	
 1692	1.144532	14.053886	-3.225792	-0.251012	-2.571828	-0.238208	-0.559083	-0.889747	1.094837	0.418182	0.656327	0.494795	0.386700	
 1693	0.636927	11.897633	-3.000292	-0.431854	-2.479289	-0.149979	-0.500413	-0.887637	1.115483	0.433761	0.663114	0.483362	0.372145	
 1694	0.540210	10.478475	-2.746525	-0.310305	-2.459157	0.126152	-0.442059	-0.890132	1.131761	0.447083	0.671319	0.470605	0.357742	
 1695	0.860758	9.632789	-2.671010	-0.312242	-2.300444	0.388028	-0.393026	-0.887148	1.141104	0.458531	0.679754	0.456238	0.345732	
 1696	0.801963	8.017140	-2.141039	-0.309267	-2.209539	0.587882	-0.349861	-0.890483	1.145164	0.468540	0.688472	0.440969	0.334698	
 1697	0.900051	7.200656	-2.346549	-0.162790	-2.196709	0.724609	-0.309802	-0.884263	1.152107	0.476819	0.698045	0.424789	0.323929	
 1698	1.144603	6.709970	-2.467341	-0.093796	-2.160542	0.817971	-0.269416	-0.873049	1.163691	0.483855	0.707882	0.408410	0.313031	
 1699	1.493244	6.422208	-2.740593	-0.125538	-2.145210	0.866771	-0.232611	-0.865538	1.172450	0.490645	0.717338	0.391154	0.302808	
 1700	1.770933	5.953872	-2.882939	-0.218964	-2.078002	0.842052	-0.197491	-0.860168	1.175186	0.497648	0.725666	0.374208	0.292787	
 1701	1.852672	5.615832	-2.942435	-0.288279	-1.972109	0.758634	-0.166500	-0.860081	1.174236	0.504709	0.732713	0.357718	0.283616	
 1702	1.652337	5.266393	-2.826170	-0.337035	-1.874291	0.656863	-0.131786	-0.858550	1.170738	0.511895	0.738529	0.342471	0.274322	
 1703	1.773469	5.224824	-2.709753	-0.316046	-1.718341	0.524940	-0.096006	-0.857714	1.170775	0.518460	0.743368	0.328630	0.265717	
 1704	1.821243	5.232882	-2.726664	-0.233359	-1.623424	0.448093	-0.062196	-0.857814	1.169735	0.524240	0.747838	0.316270	0.256679	
 1705	1.545380	5.392236	-2.707872	-0.149933	-1.417409	0.439375	-0.033702	-0.856657	1.167571	0.528484	0.752096	0.304889	0.249198	
 1706	1.006349	5.787450	-2.779949	0.066369	-1.407689	0.486928	-0.010637	-0.851058	1.164856	0.530978	0.757354	0.293982	0.240939	
 1707	1.208270	7.504563	-3.145040	0.211758	-1.460917	0.478350	0.017465	-0.841645	1.168672	0.532247	0.763432	0.282844	0.232129	
 1708	1.843573	9.091908	-3.603602	0.205789	-1.426253	0.372173	0.049885	-0.827536	1.174708	0.533758	0.768803	0.272930	0.222606	
 1709	1.434791	9.384180	-3.351580	0.106597	-1.292898	0.268791	0.079972	-0.817581	1.174380	0.535596	0.773049	0.263942	0.214165	
 1710	1.270001	10.342489	-3.087651	0.144939	-1.358650	0.216845	0.110877	-0.808862	1.175024	0.537517	0.777232	0.255345	0.204414	
 1711	0.632344	9.956765	-2.216374	-0.072299	-1.290144	0.154577	0.136644	-0.803333	1.172482	0.540806	0.779934	0.246803	0.195757	
 1712	0.765553	12.270061	-2.984600	1.024604	-1.578760	0.208388	0.168588	-0.787254	1.173969	0.536180	0.788940	0.238666	0.181997	
 1713	2.523661	13.777361	-4.715955	0.013938	-1.895413	-0.021406	0.219195	-0.764468	1.177423	0.540342	0.792392	0.228409	0.167255	
 1714	0.845816	13.151121	-3.415628	0.926027	-1.765567	0.172055	0.259023	-0.750359	1.174575	0.536614	0.800585	0.219073	0.152038	
 1715	2.170953	14.887879	-4.632138	0.134526	-1.496288	0.359427	0.293158	-0.735680	1.170700	0.538036	0.804383	0.208078	0.142086	
 1716	2.278175	15.184769	-4.313049	-0.033708	-1.615500	0.576185	0.325470	-0.726072	1.160349	0.540742	0.807581	0.194742	0.132235	
 1717	2.154398	14.985504	-3.739622	-0.423020	-1.722358	0.614850	0.355167	-0.731819	1.142248	0.546469	0.808720	0.179555	0.122896	
 1718	2.290857	13.884645	-2.834833	-0.754338	-1.886764	0.579362	0.387435	-0.747097	1.118020	0.555092	0.807781	0.163671	0.112133	
 1719	2.371125	12.399070	-1.886343	-0.967491	-1.943162	0.512393	0.421643	-0.769120	1.085392	0.565285	0.805300	0.147243	0.101312	
 1720	1.720658	10.313335	-0.679425	-0.970968	-1.956024	0.325393	0.456727	-0.790149	1.049627	0.575487	0.802084	0.132625	0.088809	
 1721	1.114766	9.120944	-0.314610	-0.877676	-1.994002	0.116156	0.490032	-0.808285	1.008976	0.584895	0.798812	0.118981	0.075104	
 1722	0.487274	7.802319	-0.373601	-0.660538	-1.985365	-0.054847	0.528523	-0.821022	0.975425	0.592418	0.796211	0.107358	0.059695	
 1723	0.120738	7.020951	-0.813590	-0.266360	-1.916913	-0.066766	0.568610	-0.824976	0.946518	0.596516	0.795591	0.095915	0.044770	
 1724	0.297212	7.135560	-1.686597	0.016734	-1.854730	-0.068947	0.600803	-0.821873	0.922157	0.598064	0.796330	0.085460	0.029579	
 1725	0.429924	6.629199	-2.180007	0.091760	-1.681000	-0.078959	0.633754	-0.817279	0.900407	0.598683	0.797246	0.075613	0.016092	
 1726	0.427722	6.037784	-2.565645	0.217097	-1.447274	-0.011014	0.660439	-0.809278	0.882050	0.597959	0.798699	0.067133	0.004323	
 1727	0.388753	5.960864	-2.948469	0.367774	-1.269275	0.127661	0.682352	-0.801399	0.868598	0.595753	0.801048	0.058106	-0.004839	
 1728	0.594919	6.171313	-3.306994	0.388827	-1.095783	0.244845	0.699496	-0.797640	0.857053	0.593220	0.803412	0.049669	-0.012379	
 1729	0.682138	6.103646	-3.348383	0.336455	-0.982323	0.368110	0.710302	-0.793467	0.847112	0.590906	0.805531	0.040419	-0.017777	
 1730	0.748255	5.884996	-3.273285	0.231875	-0.857254	0.489555	0.719533	-0.792647	0.838892	0.589416	0.806920	0.031464	-0.021862	
 1731	0.906393	5.641481	-3.095901	0.210523	-0.844533	0.568881	0.723712	-0.793789	0.832190	0.587927	0.808247	0.021428	-0.024895	
 1732	1.278042	5.946150	-3.148599	0.199046	-0.741958	0.549950	0.728209	-0.797116	0.823872	0.586564	0.809331	0.012696	-0.027660	
 1733	2.137711	7.199504	-3.418583	0.254747	-0.721621	0.489797	0.735518	-0.801025	0.815325	0.584525	0.810806	0.003988	-0.030131	
 1734	3.001820	9.191843	-3.876080	0.228106	-0.638517	0.359801	0.741508	-0.801200	0.809022	0.582770	0.811957	-0.002579	-0.033155	
 1735	2.627758	10.060075	-4.034933	0.241793	-0.579682	0.268057	0.747953	-0.801575	0.804215	0.580672	0.813308	-0.008702	-0.035707	
 1736	2.798454	11.355180	-4.270540	0.377127	-0.684319	0.291471	0.753294	-0.799776	0.803381	0.577609	0.815222	-0.014979	-0.039455	
 1737	2.946324	12.850964	-4.617399	0.339574	-0.618461	0.355374	0.759702	-0.799186	0.800593	0.574672	0.817019	-0.022119	-0.041750	
 1738	2.410699	13.691136	-4.534159	0.309701	-0.601053	0.382401	0.763942	-0.801596	0.795080	0.572132	0.818465	-0.028603	-0.044288	
 1739	2.535750	16.862662	-5.221406	0.787221	-0.857730	0.241995	0.770799	-0.797060	0.793983	0.565329	0.822603	-0.036415	-0.049011	
 1740	2.237492	16.609522	-4.690520	-0.235154	-0.700761	-0.037563	0.782153	-0.794793	0.787392	0.566960	0.820954	-0.039674	-0.054931	
 1741	-3.329158	10.399679	-1.450331	-0.522092	-0.284994	0.038081	0.783542	-0.804972	0.775162	0.571010	0.817916	-0.041881	-0.056622	
 1742	-6.153955	7.892587	-0.302832	-0.018699	-0.705821	0.436771	0.782907	-0.815771	0.763462	0.571079	0.817227	-0.049290	-0.059831	
 1743	-4.157647	11.102425	-1.868655	0.312228	-1.255314	0.587004	0.790744	-0.821932	0.749567	0.568098	0.817967	-0.061876	-0.066081	
 1744	-2.759301	12.214950	-2.840017	0.219132	-1.421230	0.643411	0.798923	-0.827223	0.732096	0.565763	0.817799	-0.075227	-0.073870	
 1745	-0.859599	12.475776	-3.564533	0.062550	-1.473876	0.792481	0.805554	-0.838010	0.711236	0.564555	0.816419	-0.090471	-0.080944	
 1746	1.092142	11.526331	-3.848352	-0.069648	-1.117353	0.939413	0.804682	-0.852545	0.691443	0.564796	0.814214	-0.104268	-0.084786	
 1747	1.734147	10.083839	-3.186707	-0.091743	-0.680981	1.100425	0.792303	-0.872919	0.674701	0.565629	0.811952	-0.117401	-0.083756	
 1748	1.600280	9.503136	-2.961931	-0.232032	-0.421282	1.198740	0.778659	-0.893903	0.663753	0.567959	0.808844	-0.129200	-0.080631	
 1749	1.697272	9.197938	-2.727202	-0.420303	-0.391218	1.278933	0.759177	-0.917105	0.651193	0.571746	0.804435	-0.141851	-0.076613	
 1750	2.351368	8.467989	-2.243676	-0.431323	-0.386820	1.322061	0.734555	-0.942306	0.638274	0.575605	0.799753	-0.154221	-0.072726	
 1751	3.119638	7.966492	-2.237734	-0.443510	-0.363247	1.288676	0.706885	-0.971241	0.628446	0.579402	0.794862	-0.166755	-0.068421	
 1752	3.176573	7.466426	-1.982308	-0.466073	-0.266211	1.240332	0.681943	-0.993318	0.617157	0.583444	0.789886	-0.177677	-0.064066	
 1753	3.157948	7.170807	-1.816360	-0.416573	-0.292530	1.205195	0.660592	-1.016889	0.603001	0.586877	0.785017	-0.189135	-0.059592	
 1754	3.305196	6.956958	-1.818120	-0.472407	-0.361735	1.137328	0.637185	-1.040122	0.591526	0.590518	0.779868	-0.199733	-0.056580	
 1755	3.375877	7.201601	-1.793262	-0.641287	-0.373857	0.985757	0.618429	-1.060986	0.578245	0.595231	0.773770	-0.209799	-0.054450	
 1756	3.566162	6.893930	-1.623526	-0.706667	-0.326640	0.924095	0.594919	-1.082224	0.561979	0.600463	0.767459	-0.218305	-0.052862	
 1757	3.610594	6.549066	-1.474852	-0.805638	-0.257570	0.892103	0.578007	-1.104808	0.544112	0.606462	0.760377	-0.226841	-0.050725	
 1758	3.387960	6.371252	-1.453253	-0.857283	-0.098260	0.880174	0.559724	-1.126126	0.524437	0.613149	0.753155	-0.233465	-0.047959	
 1759	3.439247	6.724818	-1.623831	-0.707344	-0.012922	0.971215	0.535507	-1.148390	0.509448	0.618822	0.746361	-0.241113	-0.043235	
 1760	3.621776	6.911137	-1.987157	-0.755339	0.171143	1.057033	0.509291	-1.171301	0.495524	0.625266	0.739243	-0.247360	-0.037094	
 1761	2.849250	6.916643	-1.986071	-0.634161	0.236314	1.178708	0.474712	-1.194954	0.483727	0.630860	0.732236	-0.254959	-0.029032	
 1762	2.448310	6.814244	-1.881984	-0.641445	0.222665	1.299625	0.440206	-1.217618	0.473553	0.636421	0.724968	-0.262605	-0.020677	
 1763	2.742377	8.129508	-2.345207	-0.621255	0.293394	1.322974	0.403395	-1.239547	0.463510	0.641820	0.717372	-0.270773	-0.011270	
 1764	3.464196	10.073419	-2.611018	-0.610033	0.146541	1.176958	0.367982	-1.259142	0.450649	0.646653	0.710333	-0.277938	-0.004158	
 1765	3.523319	10.938691	-2.482478	-0.688143	-0.074209	0.864664	0.341044	-1.276773	0.435420	0.651231	0.703296	-0.285085	-0.000545	
 1766	5.676527	13.152708	-1.493095	-0.346263	-0.365119	0.732366	0.320429	-1.291749	0.423980	0.652589	0.699024	-0.292390	0.000799	
 1767	6.378733	13.637386	-3.112615	-0.732510	-0.412571	0.782048	0.301455	-1.302533	0.417788	0.656342	0.691777	-0.301094	0.001323	
 1768	5.225810	9.422426	0.032059	-0.466562	-0.462056	0.879533	0.278128	-1.316995	0.397757	0.658114	0.686144	-0.309976	0.002641	
 1769	6.899696	11.562910	-0.672199	-0.817925	-0.229658	0.934212	0.253226	-1.330557	0.385260	0.662846	0.677639	-0.318456	0.005110	
 1770	6.733075	10.826596	1.273627	-0.567476	0.120461	0.909037	0.222683	-1.343984	0.367322	0.666975	0.671055	-0.323611	0.010291	
 1771	6.701740	11.710683	1.615489	-1.032403	-0.058475	0.785703	0.193490	-1.355693	0.345485	0.673544	0.661324	-0.329910	0.012200	
 1772	6.295905	10.205229	2.685611	-1.116097	-0.038772	0.718610	0.167527	-1.369045	0.315808	0.680636	0.651498	-0.334828	0.013240	
 1773	5.762282	9.269652	2.941429	-1.317167	-0.148161	0.669087	0.144808	-1.381149	0.287026	0.688594	0.639905	-0.340877	0.012777	
 1774	5.396123	7.819050	2.926025	-1.257309	-0.229459	0.575676	0.124042	-1.392946	0.253428	0.695703	0.629374	-0.346065	0.011134	
 1775	4.849197	7.154926	2.260276	-1.087770	-0.289938	0.364483	0.107938	-1.401472	0.223787	0.701540	0.620134	-0.351007	0.008405	
 1776	4.240834	6.220305	1.923400	-0.908760	-0.373269	0.160583	0.098946	-1.408658	0.192751	0.705808	0.613300	-0.354516	0.004138	
 1777	4.015621	5.684982	1.228183	-0.739078	-0.462185	0.054243	0.094434	-1.412550	0.172748	0.708774	0.607461	-0.358651	-0.000631	
 1778	3.918876	5.109879	0.685227	-0.601200	-0.462306	0.023989	0.086292	-1.419725	0.157144	0.710741	0.603206	-0.361886	-0.005302	
 1779	3.913947	4.763098	0.530422	-0.342050	-0.424950	0.078926	0.081923	-1.425400	0.145547	0.711360	0.600025	-0.365882	-0.008244	
 1780	4.557330	5.133717	0.323811	-0.362794	-0.355497	0.083654	0.077445	-1.430309	0.137164	0.712227	0.597223	-0.368696	-0.010973	
 1781	5.008880	4.793681	0.339173	-0.530589	-0.338243	0.147040	0.074212	-1.435265	0.125250	0.714244	0.592408	-0.372457	-0.013599	
 1782	5.009215	4.751561	0.786120	-0.387113	-0.222673	0.209704	0.065688	-1.441674	0.115248	0.715723	0.588975	-0.375012	-0.014677	
 1783	5.162684	4.157698	1.368233	-0.430046	-0.135834	0.207370	0.053828	-1.447759	0.102496	0.717871	0.584612	-0.377698	-0.015296	
 1784	5.389905	4.162454	1.754627	-0.211875	-0.092345	0.219781	0.044561	-1.454094	0.095790	0.718787	0.582416	-0.379364	-0.014838	
 1785	6.075541	4.843538	1.869855	-0.107479	-0.102853	0.181729	0.035248	-1.462272	0.093466	0.719177	0.580401	-0.381729	-0.014221	
 1786	6.522146	5.478204	2.014606	-0.064737	-0.077945	0.092261	0.029453	-1.468278	0.092470	0.719264	0.579795	-0.382495	-0.013947	
 1787	6.979153	5.755863	2.171819	0.030169	-0.010528	0.032624	0.023941	-1.474842	0.092019	0.719216	0.579289	-0.383372	-0.013329	
 1788	6.961515	6.320327	2.327847	0.078603	-0.006562	-0.016185	0.020793	-1.481682	0.095459	0.718730	0.580182	-0.382952	-0.012797	
 1789	7.329813	6.750195	2.488632	0.171867	0.017842	0.066008	0.014305	-1.487938	0.098827	0.718011	0.580509	-0.383854	-0.011224	
 1790	7.501247	7.719965	2.356561	0.261382	0.037729	0.218337	0.007013	-1.494065	0.106959	0.716653	0.581858	-0.384429	-0.007974	
 1791	7.980937	8.902849	2.162039	0.416160	0.026738	0.318768	-0.006778	-1.502697	0.118514	0.714590	0.582903	-0.386746	-0.003592	
 1792	8.329352	10.136070	1.762715	0.427230	0.008420	0.319420	-0.019473	-1.508438	0.131786	0.712122	0.585046	-0.388075	0.000886	
 1793	9.063450	11.709265	1.351464	0.443856	-0.035660	0.240433	-0.033120	-1.512954	0.146754	0.709639	0.586539	-0.390338	0.004458	
 1794	10.979992	14.088195	-0.024592	0.504740	0.066177	0.290982	-0.049110	-1.517773	0.163707	0.706896	0.589299	-0.391072	0.009356	
 1795	7.250882	11.510631	0.387683	0.169475	-0.040716	0.139344	-0.058969	-1.521430	0.171978	0.705984	0.589245	-0.392752	0.011108	
 1796	5.775570	11.064506	-0.583662	0.154778	-0.262585	0.004835	-0.062045	-1.525165	0.182689	0.704021	0.590655	-0.394167	0.010644	
 1797	4.700433	10.630846	-1.092825	0.211681	-0.411703	-0.263064	-0.060257	-1.528079	0.190516	0.701400	0.592583	-0.396014	0.007511	
 1798	5.763945	11.219177	-1.534534	0.204803	-0.380865	-0.412777	-0.059070	-1.531712	0.196421	0.698689	0.595893	-0.395896	0.003457	
 1799	6.031103	11.476151	-2.034176	0.112986	-0.250338	-0.424221	-0.050386	-1.534540	0.203622	0.697224	0.597812	-0.395600	-0.000253	
 1800	5.652288	10.546587	-1.999014	0.189071	-0.025984	-0.327620	-0.043726	-1.536520	0.211508	0.695979	0.600625	-0.393522	-0.001689	
 1801	4.800784	9.391153	-1.709431	0.113993	-0.087642	-0.148746	-0.037654	-1.538697	0.217749	0.695102	0.601521	-0.393700	-0.002517	
 1802	4.516209	8.974363	-1.877696	0.123960	0.048223	-0.107221	-0.038791	-1.540517	0.226206	0.694538	0.602987	-0.392452	-0.002263	
 1803	4.150104	7.744129	-1.145893	-0.009209	0.074982	-0.119934	-0.045910	-1.542662	0.230129	0.695011	0.602971	-0.391638	-0.002410	
 1804	3.760862	6.954978	-0.820618	-0.080997	0.115872	-0.141728	-0.045919	-1.545723	0.229682	0.695944	0.603112	-0.389755	-0.002849	
 1805	3.210818	5.898181	-0.374051	-0.073500	0.160021	-0.167953	-0.047968	-1.548720	0.229506	0.697120	0.602866	-0.388030	-0.003087	
 1806	2.962385	5.277975	-0.156141	-0.211599	0.226150	-0.210950	-0.046056	-1.550247	0.226397	0.699259	0.602342	-0.384976	-0.003878	
 1807	2.871130	4.636607	0.259432	-0.237769	0.298445	-0.237239	-0.046040	-1.553449	0.221002	0.701940	0.601219	-0.381833	-0.004420	
 1808	3.041763	4.366524	0.455753	-0.263866	0.334959	-0.195601	-0.045285	-1.558467	0.214826	0.704786	0.600243	-0.378104	-0.004659	
 1809	3.063095	4.139809	0.674485	-0.185507	0.357462	-0.161249	-0.046290	-1.562101	0.209492	0.707365	0.599173	-0.374981	-0.004131	
 1810	3.291769	4.263349	0.738665	-0.122138	0.384419	-0.134361	-0.047755	-1.567278	0.205177	0.709523	0.598946	-0.371256	-0.003101	
 1811	3.498407	4.356874	0.606705	-0.077441	0.429640	-0.040966	-0.052257	-1.570580	0.201897	0.711714	0.598162	-0.368328	-0.000894	
 1812	3.624264	4.450994	0.644888	0.111023	0.416144	0.057812	-0.060335	-1.576154	0.204237	0.712572	0.598873	-0.365494	0.002578	
 1813	3.462844	5.726413	0.114147	0.204603	0.207683	0.105593	-0.067278	-1.578358	0.211915	0.712245	0.599543	-0.365000	0.005529	
 1814	4.435282	6.638169	-0.260925	0.469698	0.078039	0.262430	-0.079452	-1.581012	0.222860	0.709683	0.602063	-0.365753	0.009760	
 1815	5.864633	8.378370	-0.722245	0.508994	-0.016361	0.409800	-0.097209	-1.582438	0.240685	0.706635	0.603791	-0.368632	0.014645	
 1816	6.857233	9.397167	-1.046639	0.466159	-0.090164	0.435633	-0.115231	-1.583326	0.258368	0.703401	0.605631	-0.371583	0.019083	
 1817	7.595916	10.418566	-1.283800	0.665918	-0.235821	0.444811	-0.134301	-1.583027	0.278407	0.698489	0.608336	-0.376150	0.023488	
 1818	8.247404	12.060518	-2.206058	0.689679	-0.211099	0.314603	-0.152393	-1.579453	0.300430	0.693397	0.612121	-0.379174	0.027120	
 1819	6.876069	11.313668	-1.426624	0.936006	-0.208426	0.261063	-0.163403	-1.576142	0.328520	0.686848	0.617342	-0.382282	0.031439	
 1820	12.257027	16.053477	-2.566859	0.995267	-0.197935	0.477506	-0.181798	-1.569762	0.360727	0.679748	0.622481	-0.386085	0.037393	
 1821	4.620496	10.490572	-0.696242	0.093367	-0.222260	0.224099	-0.195476	-1.569157	0.372694	0.678281	0.622057	-0.389264	0.038123	
 1822	6.628019	12.254855	-1.069152	0.400513	-0.122692	0.110717	-0.205260	-1.562500	0.388878	0.675258	0.624480	-0.390477	0.039746	
 1823	7.260695	12.588231	-0.092235	-0.052500	0.175120	-0.225858	-0.209455	-1.561197	0.392506	0.676428	0.624683	-0.388165	0.039305	
 1824	6.463669	12.450787	0.352999	-0.281733	0.473689	-0.469363	-0.205030	-1.560717	0.385710	0.680190	0.624475	-0.382002	0.038046	
 1825	5.202540	11.441721	1.257326	-0.177073	0.445171	-0.586009	-0.197463	-1.562751	0.377341	0.683311	0.625072	-0.375569	0.036305	
 1826	4.728582	10.620514	1.829113	-0.308981	0.278404	-0.670866	-0.181183	-1.566799	0.365892	0.686509	0.625419	-0.369475	0.032320	
 1827	4.648308	10.276724	1.473794	-0.340703	0.249751	-0.701484	-0.168285	-1.567557	0.356413	0.689924	0.625311	-0.363610	0.027897	
 1828	3.781573	8.858173	1.735785	-0.260268	0.193495	-0.733631	-0.151581	-1.567900	0.346115	0.692437	0.626161	-0.357659	0.023108	
 1829	3.348407	8.001971	1.161797	-0.185511	0.067381	-0.790393	-0.134491	-1.567041	0.338668	0.694191	0.627401	-0.352368	0.017442	
 1830	2.778167	7.055258	0.729039	-0.261942	0.005481	-0.881931	-0.112986	-1.567193	0.332291	0.695977	0.628707	-0.346749	0.010428	
 1831	2.178685	6.042170	0.492152	-0.126610	-0.028443	-0.830073	-0.088010	-1.565780	0.323487	0.696938	0.630429	-0.341791	0.004054	
 1832	2.049354	5.584694	0.040816	-0.063973	-0.085787	-0.712226	-0.067979	-1.565388	0.321302	0.697058	0.632441	-0.337825	-0.001684	
 1833	2.093998	5.408430	-0.232895	-0.175693	-0.126770	-0.577021	-0.052884	-1.563322	0.317890	0.697913	0.632915	-0.335092	-0.007096	
 1834	2.326740	5.077013	-0.297814	-0.211045	-0.081993	-0.376717	-0.042216	-1.563696	0.310146	0.698939	0.632729	-0.333194	-0.010966	
 1835	2.472146	4.829475	-0.292565	-0.164477	0.016492	-0.194416	-0.039474	-1.561507	0.303134	0.700195	0.632004	-0.331867	-0.012765	
 1836	2.738823	4.977404	-0.228429	-0.108385	0.009528	-0.051528	-0.044216	-1.562296	0.300411	0.700903	0.631452	-0.331395	-0.013442	
 1837	2.974539	5.015781	0.033754	-0.059740	0.002505	0.048940	-0.049697	-1.561135	0.298472	0.701472	0.630652	-0.331720	-0.013274	
 1838	3.180597	5.257849	0.273207	0.033630	-0.012507	0.114366	-0.057124	-1.558934	0.296156	0.701232	0.630545	-0.332462	-0.012451	
 1839	3.544948	6.056677	0.302000	0.108198	-0.025865	0.102218	-0.066727	-1.558154	0.299295	0.700657	0.630736	-0.333346	-0.011524	
 1840	3.875569	6.485656	0.611206	0.209156	-0.117007	0.109957	-0.075139	-1.555780	0.303336	0.698957	0.631862	-0.334804	-0.010798	
 1841	5.511515	8.576440	0.351636	0.313502	-0.131273	0.198756	-0.090191	-1.551102	0.313670	0.696743	0.633130	-0.337063	-0.009166	
 1842	5.699241	9.029417	0.448782	0.235312	-0.171178	0.245394	-0.102881	-1.548146	0.322259	0.694693	0.633969	-0.339743	-0.007743	
 1843	6.334511	9.843022	0.493180	0.315610	-0.201004	0.341891	-0.114512	-1.543852	0.328930	0.692231	0.634718	-0.343393	-0.005533	
 1844	6.934034	10.619621	-0.050702	0.244402	-0.104302	0.396538	-0.133230	-1.538923	0.337696	0.690335	0.635081	-0.346559	-0.002611	
 1845	5.997073	10.249385	-0.038861	0.167780	-0.066132	0.272540	-0.150710	-1.533230	0.342809	0.689254	0.635021	-0.348822	-0.000519	
 1846	11.659458	15.718847	0.903801	1.279309	-0.114335	0.469444	-0.169845	-1.521907	0.362339	0.680670	0.642169	-0.352514	0.006419	
 1847	5.740623	11.211218	-0.386667	-0.356182	0.192056	0.088164	-0.182435	-1.514632	0.367923	0.683855	0.639122	-0.351875	0.007059	
 1848	3.286186	10.085680	-0.613459	0.824977	0.185788	-0.162295	-0.188900	-1.505864	0.383951	0.679222	0.645342	-0.349414	0.010037	
 1849	4.523096	12.511948	-1.991020	0.530210	-0.075047	-0.475616	-0.183985	-1.496883	0.399241	0.675787	0.650352	-0.346824	0.008202	
 1850	4.720775	12.961704	-2.343491	0.446573	-0.269162	-0.551679	-0.170123	-1.489085	0.411078	0.671975	0.655318	-0.344949	0.004247	
 1851	4.464770	12.496854	-3.234291	0.447490	-0.309474	-0.485417	-0.152638	-1.480545	0.420885	0.668156	0.659819	-0.343813	0.000500	
 1852	4.059608	10.962096	-2.633010	0.561591	-0.308650	-0.343946	-0.141113	-1.472633	0.429364	0.663373	0.664764	-0.343543	-0.001938	
 1853	3.830819	10.870822	-3.129841	-0.029459	-0.389257	-0.347770	-0.134562	-1.462483	0.438626	0.662353	0.665627	-0.343775	-0.006953	
 1854	3.099635	9.690778	-3.357434	0.388924	-0.269220	-0.349970	-0.126273	-1.453957	0.446505	0.658802	0.669406	-0.343192	-0.009752	
 1855	2.537708	8.195845	-2.803073	-0.032648	-0.166287	-0.468550	-0.114869	-1.446413	0.444140	0.658485	0.670714	-0.341088	-0.014101	
 1856	2.136229	7.032947	-2.230979	-0.278848	-0.077860	-0.515143	-0.099675	-1.443088	0.434736	0.660005	0.670639	-0.338047	-0.018998	
 1857	1.859579	6.182284	-1.629138	-0.428218	0.095566	-0.481848	-0.089381	-1.439978	0.419265	0.663155	0.669420	-0.334024	-0.023034	
 1858	1.842713	5.521369	-1.273779	-0.432061	0.212044	-0.435932	-0.080546	-1.437009	0.408243	0.666639	0.668072	-0.329541	-0.025981	
 1859	1.709736	4.716028	-0.576696	-0.448548	0.218458	-0.314986	-0.074878	-1.434537	0.389791	0.670313	0.666152	-0.325776	-0.028156	
 1860	1.719488	5.008741	-0.596753	-0.673116	0.172193	-0.260175	-0.072665	-1.433770	0.371359	0.675264	0.662543	-0.322640	-0.030980	
 1861	1.777752	4.483275	-0.140599	-0.297214	0.232344	-0.082295	-0.075607	-1.431912	0.352479	0.678002	0.660857	-0.320343	-0.031017	
 1862	2.085496	5.602779	-0.380113	-0.345625	0.168760	-0.033989	-0.081526	-1.427332	0.341470	0.680808	0.658693	-0.318817	-0.031278	
 1863	2.296623	5.661228	-0.179889	-0.282054	0.111328	-0.037108	-0.082748	-1.425787	0.331921	0.683058	0.656912	-0.317632	-0.031762	
 1864	2.885851	6.291263	-0.332314	-0.229883	0.098700	-0.032768	-0.087544	-1.422076	0.320169	0.684867	0.655500	-0.316618	-0.032103	
 1865	3.479278	7.683723	-0.645827	-0.033175	0.056722	0.001980	-0.093011	-1.417303	0.313337	0.685314	0.655272	-0.316143	-0.031885	
 1866	4.580719	9.386016	-1.074792	-0.006487	0.117229	-0.005498	-0.100595	-1.409865	0.310822	0.685722	0.655306	-0.315254	-0.031213	
 1867	5.194552	10.526085	-1.454260	-0.109101	0.071561	-0.008931	-0.105355	-1.406359	0.308028	0.686694	0.654602	-0.314601	-0.031197	
 1868	5.350200	10.560052	-0.885661	-0.153560	0.038325	0.096854	-0.110930	-1.401468	0.298917	0.687847	0.653279	-0.314873	-0.030800	
 1869	5.934650	11.480926	-1.093956	-0.037844	0.009667	0.248754	-0.119628	-1.394895	0.294445	0.688227	0.652227	-0.316373	-0.029176	
 1870	4.715212	10.730794	-0.676297	0.072465	-0.050871	0.246269	-0.130438	-1.388189	0.291444	0.687661	0.651954	-0.318301	-0.027622	
 1871	3.760525	10.796753	-0.439743	0.217066	-0.110389	0.115485	-0.142275	-1.378983	0.291356	0.685952	0.653043	-0.319815	-0.026895	
 1872	9.007817	16.481015	0.171103	0.822643	-0.345029	0.289657	-0.146672	-1.370279	0.299493	0.679522	0.657659	-0.324237	-0.024572	
 1873	1.562103	10.344025	-0.625952	-0.945015	-0.021701	-0.033816	-0.152549	-1.361770	0.297905	0.685669	0.651305	-0.323839	-0.028058	
 1874	4.255375	12.085552	-0.150749	0.632823	-0.085078	0.044805	-0.153139	-1.353909	0.299535	0.681269	0.655489	-0.324832	-0.026289	
 1875	5.074093	13.435902	-0.133099	-0.444758	0.106278	-0.123492	-0.151460	-1.344764	0.292293	0.684545	0.652871	-0.323074	-0.027947	
 1876	4.063189	12.986091	0.734729	-0.417236	0.313835	-0.340398	-0.148824	-1.341081	0.272197	0.688172	0.651215	-0.318531	-0.029612	
 1877	3.066640	12.406040	1.159441	-0.555191	0.254352	-0.605215	-0.139097	-1.337929	0.255624	0.692479	0.649353	-0.312503	-0.033995	
 1878	2.430520	11.254628	1.866549	-0.448383	0.076188	-0.745145	-0.121195	-1.332650	0.238537	0.695346	0.648601	-0.306923	-0.040098	
 1879	1.615628	9.704902	2.005678	-0.390398	0.009639	-0.860419	-0.100365	-1.329283	0.223615	0.697659	0.648460	-0.300879	-0.047366	
 1880	0.859881	8.226859	1.690575	-0.266012	-0.162891	-0.908952	-0.076795	-1.325372	0.212487	0.698427	0.649254	-0.295934	-0.055601	
 1881	0.349287	7.009101	1.313546	0.073855	-0.358872	-0.871703	-0.051263	-1.317601	0.207958	0.696523	0.652066	-0.292525	-0.063990	
 1882	0.932023	6.734788	0.355422	0.223585	-0.266394	-0.830660	-0.029611	-1.311254	0.208106	0.693721	0.655878	-0.289048	-0.070896	
 1883	0.835728	5.639034	0.233036	0.225729	-0.318609	-0.695318	-0.011499	-1.304125	0.209374	0.690958	0.659155	-0.286544	-0.077365	
 1884	0.775545	5.889965	-0.521037	0.192107	-0.322417	-0.567161	0.002195	-1.296536	0.214911	0.688307	0.661866	-0.285125	-0.082895	
 1885	0.981272	5.332747	-0.443524	0.257596	-0.338502	-0.413211	0.015109	-1.288134	0.214796	0.685422	0.664486	-0.284616	-0.087462	
 1886	1.266496	6.020293	-0.778422	0.225973	-0.396487	-0.348236	0.020029	-1.283659	0.218921	0.682468	0.666687	-0.285171	-0.091885	
 1887	1.686955	6.153138	-0.710268	0.186840	-0.371990	-0.258829	0.026788	-1.277025	0.218651	0.680041	0.668323	-0.285847	-0.095813	
 1888	1.881280	6.179932	-0.617739	0.173678	-0.293192	-0.194804	0.029557	-1.270626	0.220796	0.677840	0.669790	-0.286672	-0.098657	
 1889	2.166108	6.555224	-0.533384	0.160401	-0.186904	-0.162021	0.031896	-1.264189	0.221977	0.676185	0.671128	-0.286724	-0.100750	
 1890	2.131218	7.006188	-0.339604	0.185380	-0.117046	-0.218756	0.032079	-1.257168	0.223697	0.674368	0.672892	-0.286226	-0.102564	
 1891	2.281263	7.728993	-0.221770	0.232913	-0.122270	-0.235407	0.032844	-1.250866	0.224107	0.672325	0.674973	-0.285430	-0.104502	
 1892	2.971013	9.076043	-0.607683	0.230905	-0.131561	-0.231166	0.034096	-1.244532	0.226688	0.670113	0.677002	-0.285097	-0.106473	
 1893	3.440226	9.585455	-0.662152	0.171340	-0.168649	-0.156937	0.034259	-1.237356	0.228008	0.668424	0.678371	-0.285100	-0.108353	
 1894	3.577970	10.128950	-0.693445	0.180596	-0.116265	-0.054292	0.031172	-1.233022	0.228142	0.666781	0.679582	-0.285764	-0.109135	
 1895	4.085738	11.402664	-0.736974	0.270011	-0.076289	0.040827	0.026264	-1.224979	0.230753	0.664898	0.681120	-0.286631	-0.108759	
 1896	3.832276	11.931418	-0.857463	0.042337	-0.024405	0.041896	0.018706	-1.220519	0.231270	0.664570	0.681258	-0.287121	-0.108609	
 1897	2.667972	11.290079	-0.085587	0.678754	-0.146847	0.069132	0.010020	-1.213067	0.238042	0.659725	0.685321	-0.289097	-0.107340	
 1898	2.981089	11.433533	-0.882532	-0.155793	0.175394	0.006322	0.004672	-1.207890	0.233765	0.661290	0.684467	-0.287806	-0.106625	
 1899	7.238257	17.705252	-1.268564	0.673302	0.373416	0.249175	-0.006503	-1.198989	0.242270	0.658155	0.688483	-0.287585	-0.100592	
 1900	0.065430	10.625114	-0.187390	-0.366567	0.348143	0.128251	-0.015476	-1.194138	0.237221	0.661792	0.686064	-0.285755	-0.098444	
 1901	0.060075	10.587325	-1.464488	0.054872	0.288371	0.287910	-0.028039	-1.186714	0.232381	0.662665	0.685813	-0.285646	-0.094561	
 1902	-0.387807	12.010127	-2.232313	0.013326	0.298166	0.006719	-0.036757	-1.181075	0.232841	0.663422	0.686183	-0.283678	-0.092473	
 1903	0.181510	12.595474	-2.688568	0.643118	-0.006385	-0.140392	-0.043598	-1.173897	0.240663	0.658951	0.690817	-0.283058	-0.091834	
 1904	0.012810	13.294018	-3.616802	0.577061	-0.277483	-0.411398	-0.040961	-1.167397	0.250954	0.653775	0.695531	-0.282516	-0.094866	
 1905	0.269035	14.578128	-5.098687	0.533913	-0.419171	-0.614469	-0.031984	-1.158130	0.265437	0.648293	0.700403	-0.281143	-0.100547	
 1906	-0.809123	13.117728	-4.529889	0.123286	-0.191299	-0.689652	-0.013760	-1.150723	0.269124	0.646174	0.702954	-0.277613	-0.106043	
 1907	-1.336931	11.727185	-4.027752	-0.127586	-0.069825	-0.661283	-0.003261	-1.146806	0.266380	0.646108	0.704028	-0.272878	-0.111475	
 1908	-1.242952	10.047972	-2.841199	-0.333263	-0.024251	-0.517318	0.001525	-1.142284	0.259402	0.647791	0.703269	-0.268961	-0.115931	
 1909	-1.039899	8.690610	-1.885426	-0.547374	0.024024	-0.337428	0.005022	-1.141107	0.246543	0.651208	0.700839	-0.265343	-0.119774	
 1910	-0.850688	7.574654	-1.035954	-0.765516	0.161213	-0.219740	0.004178	-1.137909	0.228757	0.656707	0.696630	-0.261773	-0.122139	
 1911	-0.607081	6.326953	-0.278270	-0.728085	0.255918	-0.085439	-0.001350	-1.137297	0.209295	0.662229	0.692570	-0.258111	-0.123199	
 1912	-0.353448	5.840304	0.019387	-0.574996	0.256843	0.013350	-0.010142	-1.137265	0.194026	0.666867	0.689051	-0.255740	-0.122857	
 1913	-0.033291	5.512485	0.193221	-0.404979	0.162447	0.069125	-0.016434	-1.134444	0.183104	0.670068	0.686567	-0.254125	-0.122702	
 1914	0.257592	5.447949	0.110287	-0.285452	0.074136	0.064001	-0.025656	-1.133470	0.175174	0.672281	0.684601	-0.253665	-0.122531	
 1915	0.557539	5.532183	-0.105830	-0.160513	0.028017	0.007467	-0.036127	-1.134169	0.167807	0.673384	0.683729	-0.252820	-0.123087	
 1916	0.686521	5.819954	-0.296223	-0.069171	-0.022871	-0.091497	-0.044842	-1.133876	0.167920	0.673675	0.683486	-0.252216	-0.124081	
 1917	0.548425	6.125964	-0.597719	-0.035646	-0.074050	-0.177507	-0.050894	-1.134534	0.164581	0.673433	0.683791	-0.250951	-0.126260	
 1918	0.817327	6.820512	-0.808162	0.037197	-0.182820	-0.228934	-0.053070	-1.135665	0.164558	0.672416	0.684402	-0.250616	-0.129007	
 1919	1.611256	7.824214	-1.088703	0.018430	-0.200522	-0.265383	-0.055195	-1.139523	0.165434	0.671354	0.685119	-0.249684	-0.132492	
 1920	1.953626	8.597310	-1.229723	0.062107	-0.186568	-0.302304	-0.057078	-1.142156	0.166076	0.670045	0.686060	-0.248897	-0.135689	
 1921	1.989894	9.670122	-1.195663	0.013526	-0.170324	-0.310595	-0.057988	-1.148187	0.168067	0.669005	0.686876	-0.247470	-0.139256	
 1922	2.055387	10.286277	-1.561033	-0.324986	-0.188882	-0.292681	-0.058541	-1.152297	0.166901	0.670344	0.685180	-0.246208	-0.143350	
 1923	2.479826	10.422339	-1.657877	0.187331	0.077470	-0.116364	-0.063826	-1.157493	0.168624	0.668968	0.687023	-0.244747	-0.143459	
 1924	1.897644	9.718382	-1.269131	-0.114112	-0.081912	0.044037	-0.070982	-1.163446	0.165937	0.669600	0.686055	-0.245383	-0.144052	
 1925	1.599791	9.766212	-1.193426	0.139707	-0.127943	0.139178	-0.083362	-1.170933	0.169309	0.668404	0.686657	-0.247011	-0.143956	
 1926	0.775015	10.078089	-1.087704	0.062355	-0.150256	0.102395	-0.093444	-1.178881	0.172420	0.667738	0.686625	-0.248755	-0.144194	
 1927	-0.979750	9.501774	-0.685891	0.302240	-0.190611	0.130830	-0.103108	-1.184196	0.179207	0.665243	0.688244	-0.250957	-0.144198	
 1928	2.870005	15.173136	1.133924	0.711929	-0.557097	0.580410	-0.114724	-1.189275	0.188144	0.659730	0.690702	-0.259621	-0.142425	
 1929	-3.811697	11.141544	-2.697359	-1.032116	0.113814	0.311177	-0.133892	-1.194852	0.200065	0.667431	0.683426	-0.259085	-0.142617	
 1930	2.927653	14.429701	-3.394406	1.565882	-0.385004	0.941067	-0.157620	-1.196362	0.218973	0.656950	0.690799	-0.270204	-0.134917	
 1931	0.930076	12.407986	-0.712922	0.309240	-0.551756	0.963584	-0.183952	-1.198801	0.228743	0.654440	0.689673	-0.280459	-0.131915	
 1932	1.038482	13.206010	-1.044069	0.124885	-0.043119	0.627808	-0.207101	-1.199648	0.235399	0.654261	0.688685	-0.285174	-0.127792	
 1933	0.549413	12.468459	-0.347441	-0.120033	0.171741	0.257306	-0.222038	-1.202908	0.231049	0.655779	0.687618	-0.285211	-0.125657	
 1934	-0.251156	12.182063	-0.130130	-0.084764	0.194937	0.057653	-0.230274	-1.208427	0.227230	0.656976	0.687166	-0.284171	-0.124227	
 1935	-1.348621	11.624062	0.333406	0.058817	0.228090	-0.027307	-0.231904	-1.212909	0.224920	0.657080	0.688147	-0.282029	-0.123122	
 1936	-2.165071	11.544206	-0.110523	0.027065	0.204187	-0.052069	-0.232284	-1.216909	0.219222	0.657392	0.688746	-0.280310	-0.122030	
 1937	-3.137798	10.561554	-0.034723	0.262383	0.130642	0.061628	-0.234824	-1.219141	0.219560	0.655922	0.690712	-0.279562	-0.120532	
 1938	-2.602611	10.257744	-0.483450	0.292583	0.054731	0.366308	-0.241697	-1.219262	0.223395	0.654477	0.691692	-0.282027	-0.116976	
 1939	-1.861827	9.931886	-1.157986	0.093090	0.091094	0.656552	-0.256313	-1.218601	0.226210	0.654737	0.690834	-0.285365	-0.112404	
 1940	-1.530232	9.171332	-1.517290	0.572693	-0.001379	0.860259	-0.274120	-1.213257	0.235172	0.651701	0.692126	-0.291869	-0.105167	
 1941	-0.310101	8.186479	-1.391511	0.327887	-0.088363	1.015806	-0.293656	-1.209215	0.239993	0.650090	0.691498	-0.299065	-0.098865	
 1942	0.660207	8.316851	-1.739511	0.510963	0.149196	1.066827	-0.317907	-1.201470	0.248444	0.648004	0.691764	-0.305879	-0.089390	
 1943	1.181793	8.129110	-1.630419	0.533037	0.278521	1.033285	-0.342877	-1.193658	0.255245	0.645925	0.692618	-0.310951	-0.079814	
 1944	1.624200	8.669118	-1.672654	0.299635	0.361368	0.958612	-0.363016	-1.185124	0.258491	0.645696	0.691860	-0.315400	-0.070209	
 1945	2.129507	8.294335	-1.562062	0.724038	0.705016	0.954476	-0.387814	-1.177223	0.266240	0.643394	0.694333	-0.317225	-0.057563	
 1946	2.479045	8.688567	-1.427681	0.513467	0.640396	0.947255	-0.407439	-1.165081	0.272513	0.642350	0.694987	-0.319869	-0.045412	
 1947	3.171275	9.302284	-1.666735	0.755357	0.838943	0.978848	-0.429151	-1.154046	0.283448	0.640038	0.697402	-0.320916	-0.031553	
